Time	Linear acceleration X	Linear acceleration Y	Linear acceleration Z	Angular velocity X	Angular velocity Y	Angular velocity Z
1718170318	 0.2540999583510682	 0.30283596874102947	 -10.356839411973953	 -7.72568338032613e-05	 0.0002228750654823467	 -0.0005731666871376008
1718170318	 0.2567011172927916	 0.3012497589955106	 -10.355692580026387	 -0.0003703158005045831	 0.0002592076437689568	 0.0015560529057541362
1718170318	 0.2531887983229011	 0.30383113552452995	 -10.355475137883424	 -0.0013034018820153564	 -0.0009564953715222998	 0.0005728748187261417
1718170318	 0.2536537489535287	 0.30874570424146947	 -10.357558373898268	 1.5445342789094746e-05	 0.00047495735543584354	 4.08316365475883e-05
1718170318	 0.25085052810106423	 0.30631705232243983	 -10.352282479321955	 0.0004077572056766964	 0.0014292361134844377	 -0.00019257096129000735
1718170318	 0.25414122194321825	 0.31023356817904857	 -10.36607602687478	 0.0011286734173337762	 -0.00046890913194750267	 -0.0015647823004795768
1718170318	 0.256294728448987	 0.30366516784047703	 -10.36708023548126	 0.0006724376422348369	 0.000440787002579681	 0.0009867441611565975
1718170318	 0.25703970159739253	 0.3033030747961253	 -10.36185928596258	 -0.0010745469438282612	 -0.0013906608492730206	 0.0011025990156747314
1718170318	 0.25774127399548885	 0.3051574522248469	 -10.361957485640048	 -0.001054613027024423	 -0.003339884887230584	 0.0008751555008505133
1718170318	 0.25539516752706837	 0.30033863549996165	 -10.36540499574542	 -0.001546602324924908	 -0.0020704204940224613	 -0.0016881689724741722
1718170318	 0.2519562973858788	 0.30104254598561675	 -10.376273595762251	 0.0012130965341494264	 0.0003384549401655143	 0.001098550958802946
1718170318	 0.24833399696918204	 0.30145191223779694	 -10.367278972923755	 -0.0002800663035999904	 -0.00041820117290032854	 -0.0035667341972402946
1718170319	 0.24532146248128264	 0.30270516370190304	 -10.363158093601465	 0.00032675809738950707	 0.001491199991798528	 -0.0021160385709603773
1718170319	 0.24964498823620376	 0.300762961859256	 -10.369966604572534	 -0.00018139117878179448	 -0.0017035892993641116	 0.0016484982752049996
1718170319	 0.25374429504750295	 0.3097247053414583	 -10.367202985078096	 -0.0008185393358298294	 -0.0015805118557421823	 0.0012497818382395931
1718170319	 0.25507600030899047	 0.3137495404107496	 -10.362633192944527	 0.001564983207895796	 0.00029708904593537763	 0.0009579245449578719
1718170319	 0.25222139632916074	 0.30915991106554863	 -10.36195397850871	 -0.0009542022311784033	 -0.0008330354235865784	 0.0007210970283316773
1718170319	 0.2559435221248306	 0.3107338823840022	 -10.359017340534924	 0.0003554716682821312	 -0.0009335772318739193	 -0.002085242519927271
1718170319	 0.2553996427727863	 0.29708803620617835	 -10.365624775975942	 -0.00034508390962203356	 -0.0015605793693471328	 -0.0002569596263204829
1718170319	 0.24750569291887803	 0.30419839793434367	 -10.363215376746654	 0.0012095322155225186	 0.0015283230009780113	 0.001480751375746333
1718170319	 0.24961499495673922	 0.2993505377780646	 -10.354987646627425	 0.000956947640773828	 0.0011623181924879942	 0.00012891563271070046
1718170319	 0.25426700374735517	 0.30249026057589795	 -10.35499933706522	 0.001385102540794781	 0.0001734769545194124	 -0.00041361346180374673
1718170319	 0.25382490426935256	 0.30417260590596124	 -10.362653066688775	 -0.002132356544383755	 -0.0009733582656755591	 0.001872512124884184
1718170319	 0.25433334698183463	 0.3054997445901856	 -10.35537109298706	 0.0009863321384068946	 0.0009825483820680968	 -0.0010473440796721603
1718170319	 0.24513629690641536	 0.3058376713076606	 -10.364648624420166	 -0.0009309392979933847	 0.0005350554280316364	 -0.0015933274082280506
1718170319	 0.24595281918738035	 0.30432828965801745	 -10.36105849097371	 0.00021704054181609613	 -0.0002890959866431684	 -0.0023213565876608524
1718170319	 0.24941106988247483	 0.3037263782421127	 -10.35233041011691	 -0.00018314035741988358	 0.0011031198145109505	 -0.00030365036355805344
1718170319	 0.24730023347465319	 0.2970088152238168	 -10.351584560185671	 0.00020635356764485237	 -0.0029887627019631485	 -0.0010429021402348548
1718170319	 0.24952815692350266	 0.29930918285436925	 -10.351802002328634	 -0.00039946844187673127	 0.00038997878488014105	 0.0004497654834900846
1718170319	 0.25054244853258134	 0.29917567440150306	 -10.357342100799084	 -0.0011744666543297164	 -0.0008751543955346311	 0.0012127895164085242
1718170319	 0.24919519864208994	 0.26742252739127725	 -10.357045163679123	 0.00068892433887669	 0.002444095804622855	 -0.0016625373473537854
1718170320	 0.2457854449975304	 0.28342923921523616	 -10.36070310166478	 0.001905612824550077	 -0.00048607494767104225	 0.0013607786994186777
1718170320	 0.24332214189022777	 0.31208526046033946	 -10.361333216261864	 0.000312940348491469	 0.0005377864035020124	 0.0014716625583034617
1718170320	 0.2561532741516828	 0.31217286567855623	 -10.351802002328634	 0.0001937282757825156	 -0.0006161252440259903	 0.0018716800170806968
1718170320	 0.2546627615992911	 0.31004626544602215	 -10.352978060370683	 -0.00030081721138716335	 -0.003289548281810509	 -0.001345964865855112
1718170320	 0.24411163003379477	 0.3044758266362361	 -10.357336255580186	 0.0014557155809049864	 -0.0004815403242460925	 -0.0021924598509753426
1718170320	 0.25220784272784363	 0.30831363296713676	 -10.356438429957628	 0.0001918415178263941	 -0.002608585533232679	 -0.0015951445475382443
1718170320	 0.24797113673985002	 0.2988983370311558	 -10.358948366951942	 -4.0551959120123064e-05	 0.0003865872206237494	 4.091835508039819e-05
1718170320	 0.2515470772641711	 0.3092961411984637	 -10.36689552656412	 0.0007695628541119852	 0.0008683840106637827	 0.0015184739862825719
1718170320	 0.25010210262024773	 0.30594522333536295	 -10.359645117044447	 -0.0010275886388739928	 0.00045539072859777333	 0.002588501033394548
1718170320	 0.24623322529764843	 0.3039295178650878	 -10.357281310522556	 0.0009495016478246833	 -0.0009027980206533699	 0.0033132748624987835
1718170320	 0.244314112069644	 0.30677433110326524	 -10.353761319702864	 0.0009019591509174275	 0.0007283274846838099	 -0.0007513098626905156
1718170320	 0.2510297571254894	 0.3083110391512513	 -10.351584560185671	 -0.0010315878667912213	 -0.001348009700237021	 0.0004259605229020522
1718170320	 0.2438908634225838	 0.3040298547007143	 -10.352098939448595	 -0.0014710854533758362	 0.0009881003837439502	 -0.0010364748584175305
1718170320	 0.24811648176098242	 0.305792042067647	 -10.361091224199534	 0.0006674527976436701	 -0.0012441729453051013	 0.0022577000156011784
1718170320	 0.242394103792496	 0.3024756109960377	 -10.347730222845076	 -0.0015854273905256827	 -0.002004314151856537	 0.00150299254192621
1718170320	 0.25440803791955113	 0.3074590984970331	 -10.349638102293014	 0.0004817945468989785	 0.00023972186753673405	 0.0018319981366155405
1718170320	 0.25109918736619874	 0.31178017656654117	 -10.349238289320468	 1.5562002378593637e-05	 -4.405889884903295e-05	 0.001038163521011074
1718170320	 0.24619599855979904	 0.30630388231361283	 -10.353995128458738	 7.52338619193147e-05	 0.00019691759974177126	 -0.0028111948758361644
1718170320	 0.2589350320910103	 0.3027934082409367	 -10.353436325532197	 -0.0009198637727802876	 -0.0006079888187620129	 -0.0002842605547518307
1718170321	 0.2500302794930525	 0.3098596203001216	 -10.355872612768412	 0.0032326250340303417	 -0.0023424793042051938	 0.00041063453797358034
1718170321	 0.22138762918617574	 0.29974682535296304	 -10.368920310389996	 0.0008764032724442562	 0.008671192692203202	 -0.0028055905342023635
1718170321	 0.35250147853344677	 0.28682843493316323	 -10.367130504363775	 -0.0009855588074009034	 -0.012259888085612293	 -0.009965534234914298
1718170321	 0.13073528009215368	 0.32074908044189215	 -10.359390265500545	 0.0012971750524841824	 0.009859396862501632	 0.015352048016897768
1718170321	 0.2938760701560415	 0.32846944556087254	 -10.340388627910613	 0.007293952458333635	 0.009786069426659282	 0.0024624443083402555
1718170321	 0.3170898638145998	 0.25956936620548365	 -10.356894357031583	 0.00956487725337139	 -0.025901536496866183	 -0.0064048483261809255
1718170321	 0.11638298441171645	 0.4005403735047206	 -10.359740978634356	 -0.002091045428308364	 0.014515708283990904	 0.004233516393236428
1718170321	 0.25827748149773105	 0.3025954379834235	 -10.361384654188155	 0.009018559924363357	 0.010519645471300016	 0.00019276497673660883
1718170321	 0.3429548843679949	 0.270544002146367	 -10.365503195422887	 0.005946982795323102	 -0.01056656912135045	 -0.014597557835321507
1718170321	 0.3010525559229776	 0.3638231195474043	 -10.348848997741937	 0.0014671262118861076	 -0.020473179876849445	 0.01263691055277805
1718170321	 0.2625760737407952	 0.25689424697840585	 -10.382869340765476	 -0.011037758259888427	 -0.007851239202230081	 -0.009998747806837328
1718170321	 0.2608726308237761	 0.12009926498848944	 -10.42312653235197	 -0.015315269346124854	 -0.005308580949990425	 -0.04971461790570302
1718170321	 0.3807952240711078	 0.16935632184417918	 -10.387255593025683	 0.015344737847764961	 -0.017382077927918894	 -0.13609149315517058
1718170321	 0.15624933178341016	 0.10379420040561817	 -10.413725082278251	 -0.04793745722077952	 0.04528591833214496	 -0.14334333073772676
1718170321	 0.06316694253087043	 0.2646158542064018	 -10.553997476321458	 0.029771338426157496	 0.07677289218026132	 -0.1998964553024273
1718170321	 -0.034266006613988424	 0.10393197404164821	 -10.629855558121204	 -0.007360623031748088	 0.24515895862292558	 -0.036234570317454605
1718170321	 0.30948768171519037	 0.13415898006367497	 -10.822898588365316	 -0.030152472148256063	 0.1559180949700516	 0.10322746112521228
1718170321	 0.6733598645687103	 0.3020223508032039	 -10.885905371898412	 -0.07404819542424444	 0.05080007243174888	 0.07920678838999837
1718170321	 0.7201386399436742	 0.7039035444576293	 -10.813255146229267	 -0.06887546273757787	 -0.029946443348424806	 0.035717858809330386
1718170321	 0.8943849075201898	 0.966604194426164	 -10.876754097193478	 0.10063116202325084	 -0.19376063201942562	 -0.0571399687556563
1718170322	 0.4961668029505759	 0.5248852036410943	 -10.891802028721571	 -0.000650940158587878	 -0.19470437308596564	 -0.08808109861003649
1718170322	 0.18125172589179128	 0.4238721857860684	 -11.007224059146642	 0.00028404225486511336	 -0.09806858519859253	 -0.09106056833621148
1718170322	 0.09024424321716651	 0.20680375323956832	 -10.945166539162397	 -0.06965739180076036	 -0.0026261772206637385	 -0.07036448603731162
1718170322	 0.10908667165739461	 0.08260412199385464	 -10.872271983343362	 -0.12484061959023775	 0.06412835312737641	 -0.01880634688186628
1718170322	 0.31014135985095054	 0.2602049606952816	 -10.798491292339563	 -0.11400355132443281	 0.03619694484467883	 -0.010270805316648436
1718170322	 0.5027032189819961	 0.6893620280817151	 -10.77751513980627	 0.014285474886861651	 -0.042359025231553014	 -0.042676440743976835
1718170322	 0.49857715202793473	 0.7209777941815555	 -10.714567977505922	 0.1296684146590902	 -0.07279963892618804	 -0.08076293999395891
1718170322	 0.21301477324152365	 0.4174496784579009	 -10.541531962502003	 0.06169592581742812	 -0.03756806917071692	 -0.029118957585845155
1718170322	 0.04929440232454799	 0.19248704032916575	 -10.482681129604577	 -0.024074260529773354	 0.053316326898196625	 -0.004903176051566609
1718170322	 -0.0003424886211318153	 0.2030950166484341	 -10.515910029989481	 -0.0808424686420114	 0.15536941720646802	 0.06905421494218184
1718170322	 0.19703146055946125	 0.4340937200710177	 -10.562720881003141	 -0.0015581407824368663	 0.2094698369862328	 0.16149402192337775
1718170322	 0.7378340172406286	 0.6511583349589258	 -10.353239926177263	 0.08976785329833022	 -0.008353417757061953	 0.11513672636826153
1718170322	 0.8286649195056408	 0.8231067008566111	 -10.142870498079061	 0.19750776625219435	 -0.15697430465837703	 0.08345431394683618
1718170322	 0.5282548627372831	 0.7009605498082936	 -10.102262593358754	 0.259083729146082	 -0.14256202585292477	 0.14856768713764884
1718170322	 0.27521782090999186	 0.28356948793614284	 -10.023715710866451	 0.1876475954085009	 -0.09425227535650899	 0.20644788151829266
1718170322	 0.22090676860036326	 -0.20347654504561796	 -10.08580479503274	 0.06882110928420504	 -0.08223860587635022	 0.2606792622446621
1718170322	 0.3304013269389048	 -0.4514230405345559	 -10.219826311987639	 -0.02114973722643266	 -0.1433689803079756	 0.23923262624917224
1718170322	 0.36558406480532135	 -0.41438177878726273	 -10.407117646837234	 -0.06823569238114598	 -0.16814769688034534	 0.24331184002511705
1718170322	 0.20439565091822295	 -0.15380703493151812	 -10.527983914142846	 -0.08746404418546513	 -0.20717883601373535	 0.23004357200017878
1718170323	 -0.034318700349028224	 0.028992468391545116	 -10.576925931966304	 -0.0713984832976701	 -0.16714678107415268	 0.21028413177903818
1718170323	 -0.2570941534646787	 0.3221895250411704	 -10.558396588063239	 0.0022701092019539165	 -0.1118795222299049	 0.11526014724002989
1718170323	 -0.514082143141143	 0.3633000089887529	 -10.449611219173669	 0.08096207786446959	 0.00973478172943194	 -0.07615400683244053
1718170323	 -0.6094820338221266	 0.20740157300224527	 -10.356088885867596	 0.0891750586068138	 0.1490720399138394	 -0.22217065196190247
1718170323	 -0.5412142244882882	 -0.003914752586963004	 -10.370566324031353	 0.07867601206236716	 0.22493736008411536	 -0.3040829956375828
1718170323	 -0.277517037763074	 -0.13316620616666042	 -10.413210703015327	 0.03813875130280728	 0.28107551421671106	 -0.25902783605270396
1718170323	 -0.026472946151555515	 -0.06564186757730785	 -10.47422660499215	 -0.004572925351045369	 0.30247384712792963	 -0.16718080295707846
1718170323	 0.3472920733220875	 0.12145047866804524	 -10.473400091040133	 0.05986911798412065	 0.2123150584263326	 -0.10183243076720153
1718170323	 0.5814654247254133	 0.22971264566741884	 -10.409732797771692	 0.09895337885887932	 0.10683331466215232	 -0.010400193333734254
1718170323	 0.641668914340809	 0.11644161013062111	 -10.222808542668819	 0.13020537451387743	 0.0577409443451463	 0.17325399202019284
1718170323	 0.5750848568428307	 -0.24183270705007015	 -10.27653896381259	 0.05340627516401405	 0.04295442898869987	 0.3406774255973343
1718170323	 0.5952277003571391	 -0.3305638240242377	 -10.365222624915837	 -0.030744168285822823	 0.05838542932894548	 0.5689967505944981
1718170323	 0.8614023100465535	 -0.4067579693779349	 -10.264080464255809	 -0.06620080844291927	 -0.07709668263454451	 0.625608231676585
1718170323	 1.070556517136097	 -0.15694418217977507	 -10.146874473023415	 0.008626351717348994	 -0.27228102392796966	 0.5469190119996867
1718170323	 0.7928628076318651	 -0.11359212071732618	 -9.937166723704337	 -0.0012556989192494502	 -0.3657245888075841	 0.4787107959508498
1718170323	 0.3643786345383152	 -0.24454503474868833	 -9.860049581754208	 -0.0655311066525484	 -0.34023873638677105	 0.46681951536753696
1718170323	 -0.22706014013094827	 -0.3365448346626013	 -9.79342402320206	 -0.19953900914986822	 -0.18719102972912044	 0.47257500595736174
1718170323	 -0.47757769168429076	 -0.24556604835949836	 -9.857686944276093	 -0.191314235597322	 -0.06807051397572302	 0.3057715729267475
1718170323	 -0.653696694330126	 0.09095333220143802	 -9.9236233515203	 -0.15171790710158994	 0.10219636005253925	 0.22009218788915014
1718170324	 -0.590985642340593	 0.2609224430485628	 -10.052703320419788	 -0.10226066707048627	 0.18934717488191904	 0.16733233682310397
1718170324	 -0.3461283633049577	 0.4822158363463357	 -10.1479803884387	 -0.024097427950662442	 0.2503972799738137	 0.07905071882774131
1718170324	 0.06892200805940665	 0.4989070050368085	 -10.282913759541511	 0.03038974523721991	 0.23559479813439443	 -0.017966521112704394
1718170324	 0.31620277878176417	 0.332855113299191	 -10.516874491107464	 0.02653226666975402	 0.2275495882183468	 -0.018152151763061324
1718170324	 0.5295809967745095	 0.3797794711573049	 -10.646715507507324	 -0.010308708548803528	 0.17888196712807322	 0.08682173134243006
1718170324	 0.7647786497242748	 0.35574407718386497	 -10.60899280283451	 -0.05863760987822997	 0.05372341603795046	 0.26952618351736446
1718170324	 0.7532200216166675	 0.5502823509544134	 -10.745151331818104	 0.032349596692328245	 0.010169734192090725	 0.4027278139946628
1718170324	 0.459586911637336	 0.3606121581442654	 -10.643154600155352	 -0.031555556487969705	 0.044453717942198025	 0.6282009521558316
1718170324	 0.1903162356287241	 0.3081684158101678	 -10.440035581576824	 -0.012493550302645023	 0.17797571005387608	 0.8388526001653007
1718170324	 0.15276633023954928	 -0.1078739074673038	 -10.039800584226846	 -0.1360435146436571	 0.29427893426910595	 0.8496185620300005
1718170324	 0.31832605454605073	 0.021540892010275273	 -9.903429289275406	 -0.21834909902142283	 0.3717952978019333	 0.543370449715697
1718170324	 0.6635708764821291	 0.6275674698825925	 -9.893230551344155	 -0.03360035029828396	 0.4118689812783053	 0.21737343331131548
1718170324	 0.9663223818100989	 0.8320194175653159	 -10.11778749474883	 0.008639968688867974	 0.41368365924508527	 0.009058619692823034
1718170324	 1.3230318334273994	 0.7759540506679564	 -10.557075568592548	 0.026767482050656863	 0.44083711656147867	 -0.10740340590537581
1718170324	 1.889503687160462	 0.4679803902449086	 -10.647503443014621	 -0.1557723368346402	 0.36584689448064595	 -0.1146910796493504
1718170324	 2.3005530701220036	 0.6503273640275001	 -10.807271980166435	 -0.16503063327197573	 0.25897463940992965	 -0.08332438497515393
1718170324	 2.6189447737827893	 0.8311210074208676	 -10.924569156813622	 -0.14862188246583194	 0.13952811944959287	 0.031582377432979244
1718170324	 2.666551451349258	 1.0102893146347254	 -10.92296756683588	 -0.2505205177532572	 0.15518211375805138	 0.1455731622289365
1718170324	 2.8848388129651545	 1.1786970122508704	 -10.793151100355386	 -0.1995334830906063	 -0.026726500578788667	 0.06814364687597012
1718170324	 2.7986741489455103	 1.2498406327493488	 -10.734175179773569	 -0.11897755393713062	 -0.154047840160273	 0.030796636720486586
1718170325	 2.0381594402760266	 1.2422488624460994	 -10.46081767284274	 -0.03145268564908159	 -0.02506533928468953	 0.022639299400168223
1718170325	 1.8292570159904658	 1.1458312460899351	 -10.423739111292361	 0.11875356544469814	 -0.029988918687216967	 0.06657027210989731
1718170325	 2.095289148469269	 1.06670649064444	 -10.187487053918838	 0.13326057788355156	 -0.12486974791466049	 0.23194418684638426
1718170325	 1.7930761339321732	 0.7777140460778027	 -9.898028307014703	 0.04137621059839449	 -0.1739959486998889	 0.31632787743463087
1718170325	 1.9060865731708705	 0.609946911387518	 -9.897097748166322	 0.1527924426671665	 -0.3258692845405986	 0.3894000908983885
1718170325	 1.2495020484447479	 0.1822752967858687	 -9.967532635873555	 -0.01683142359946378	 -0.22257515284197188	 0.42600280994703293
1718170325	 0.8646766555421054	 0.07027482917415909	 -10.070832851350307	 -0.13220967787264948	 -0.1311863249342729	 0.47111449512604864
1718170325	 0.5814107719287276	 0.12027938906205818	 -10.009596000099181	 -0.23658752472023512	 -0.014462109046161157	 0.2070129044330666
1718170325	 0.3777323293691501	 0.40454708839543163	 -9.941195248568057	 -0.1857191505289041	 0.061083569375467224	 1.246315177521799e-05
1718170325	 0.26633884207410735	 0.7427416630264371	 -9.76703636701405	 -0.2161877939940122	 0.2395471455739106	 -0.0450679718864356
1718170325	 0.5763986428551375	 1.0139698297783732	 -9.761453013923763	 -0.2684713386990977	 0.4459168966037231	 0.014469979935539102
1718170325	 1.368405198983848	 1.4163272261098026	 -9.951725994932652	 -0.13909672064251366	 0.3611870616527934	 -0.07136374569020137
1718170325	 2.110914295363426	 1.7006835353083907	 -10.028119498783349	 -0.04631001612338891	 0.07836780942283934	 -0.04595024386606522
1718170325	 2.3534895644091067	 1.674999205084145	 -10.000229621338844	 0.029705002828473905	 -0.09293128919918084	 0.11123033510230605
1718170325	 2.2913166013516486	 1.5759562086604535	 -9.911113414037228	 0.00671169129713659	 -0.0723514289147277	 0.28418598650138277
1718170325	 2.3286514757506547	 1.6217171122297644	 -9.679036011999845	 0.03697099677669956	 -0.12228807123155927	 0.151442869140012
1718170325	 2.3448044459111985	 1.5672554542019963	 -9.389804644110798	 0.10730996224062765	 -0.23901183355004788	 0.020835080582450594
1718170325	 1.8902401847414672	 1.0808422026984392	 -9.140801241713762	 0.05864886589502476	 -0.18460460096794912	 -0.05475807908858146
1718170325	 1.6676580485410988	 0.7529209656048566	 -9.03466609507203	 -0.04195976328869049	 -0.13659130191275118	 0.16407793732627032
1718170326	 1.7996213177919387	 0.6744792239874601	 -9.21340938180685	 -0.05847376305335204	 -0.17047385157923187	 0.3640724635358398
1718170326	 1.8828022898256778	 0.5913791351702063	 -9.430136069977284	 -0.11157050399729324	 -0.2441018001834618	 0.3582973321329757
1718170326	 1.8217954479381442	 0.609378865708597	 -9.899037191796301	 -0.1572945997137295	 -0.22345106652449895	 0.30940305938917956
1718170326	 1.4741026848606764	 0.9435999701313674	 -10.06782256361842	 -0.20721280796239067	 0.03461000460180344	 0.18018282145203607
1718170326	 1.5181168908931315	 1.2594172932595014	 -10.125924039453267	 -0.10542471050496056	 0.19465500473725827	 0.012176494733087285
1718170326	 1.7273597991794347	 1.5732206462167202	 -10.04993970092535	 -0.08527830465505304	 0.28286159649128634	 -0.18847297560934373
1718170326	 2.124840090993792	 2.0054710765086114	 -10.227427434641122	 0.035544229028635625	 0.3187044823914176	 -0.22185456803002368
1718170326	 2.8987106864511967	 2.1484002686709163	 -10.532867010009289	 0.3683018629525083	 0.046979089574190086	 -0.16760236471288117
1718170326	 3.0309710389524698	 1.4065933292113244	 -10.674653315746784	 0.28252703687934516	 -0.21119320181713672	 -0.15070437456973304
1718170326	 2.4274758609876037	 1.0952987442046402	 -10.436287627220153	 0.10856158137393765	 -0.2787997099071839	 0.060160563514727
1718170326	 1.565296575219184	 1.210623378669843	 -10.236342562502623	 0.19469979577784205	 -0.0969785533644231	 0.18607180299150103
1718170326	 1.294187285606563	 0.7655396972246468	 -9.906531931465864	 0.11800250408302536	 -0.1652110457910718	 0.15325942796431186
1718170326	 1.0523353623993694	 0.4967267749208957	 -10.00101872588992	 0.036188722334813204	 -0.10216316208507574	 -0.053870830326664745
1718170326	 0.9844354730624705	 0.6396444958411157	 -10.001897846812009	 -0.006091811425096225	 0.062002776070464886	 -0.30382157308707786
1718170326	 1.3246673256747423	 0.8118829307265579	 -10.08395536777377	 -0.05991830740169226	 0.11780553003090037	 -0.3992503248222646
1718170326	 1.5177227770090103	 0.9938782049946486	 -10.091575195127724	 -0.02818888602583781	 0.1394963945431073	 -0.4368792264179438
1718170326	 1.9135972410619257	 1.0492864962227642	 -10.066047955161332	 -0.0676484487160267	 6.219742505812256e-06	 -0.4647299991762608
1718170326	 2.054577637244016	 1.3398790694624185	 -9.67408394255042	 0.06094892577641771	 -0.09565320628080995	 -0.46499252028071536
1718170326	 2.0655589038550852	 1.3385431446835399	 -9.244114901193976	 0.047071717645854404	 -0.27948970165610976	 -0.39556763908787573
1718170327	 1.7704025298312305	 1.2979494146190582	 -9.643755439782142	 0.036688273098663224	 -0.17636115199825872	 -0.36409996067409484
1718170327	 1.6335484197989105	 1.1414833530787378	 -10.152456657069921	 0.03876067847993564	 -0.2811860021124358	 -0.31385882749850474
1718170327	 1.473665170226246	 0.7987574186284094	 -10.820216801935434	 0.05605007424073057	 -0.31688877244971514	 -0.37589293732367013
1718170327	 1.2871622092753647	 0.4897309612167999	 -11.25525423259735	 0.060762113348327054	 -0.36176426852955446	 -0.529318446671462
1718170327	 0.8719996919065713	 0.23734686687290668	 -11.375817717564106	 -0.05777459588223298	 -0.3627464423395757	 -0.7725536708809688
1718170327	 0.21342594785830005	 0.3339346156315878	 -11.154143636119365	 -0.07752709940097176	 -0.2828863971789377	 -0.8122384995486757
1718170327	 -0.26730892921527843	 0.5169792162895203	 -11.075917071622609	 -0.02960114578774462	 -0.0668366547979325	 -0.6835562201517281
1718170327	 -0.16853132399581372	 0.5311058317216113	 -11.010070680749415	 -0.029447029903818495	 0.11560287110518787	 -0.5502836497208928
1718170327	 0.3585350961418822	 0.6726379069697112	 -10.972040517562627	 0.06427669952247224	 0.08613523499243488	 -0.4956722026174554
1718170327	 0.7014148694470524	 0.6429584426946938	 -10.74334749726653	 0.10080580713411119	 0.0800546306901603	 -0.545978450081698
1718170327	 0.6639293345309794	 0.5026887885978445	 -10.31586910368204	 0.09312083136738881	 0.096147946709941	 -0.6207700669242381
1718170327	 0.5855715448699891	 0.5605266815930604	 -10.117379498469829	 0.06062565547078492	 0.1532420674829559	 -0.5136895526562776
1718170327	 0.5855848062103614	 0.6099519163561985	 -10.200433044731616	 0.03764457263421865	 0.1763626666711287	 -0.35204013528329364
1718170327	 0.6744445910654961	 0.5822627125829458	 -10.436150849097967	 -0.02975921480141383	 0.21813689501681394	 -0.23040461342020946
1718170327	 1.0088266216710209	 0.7791656331256032	 -10.52588664960265	 -0.05282773254551876	 0.26878089788630577	 -0.24565154355604935
1718170327	 1.2666568891242145	 0.9488064527332782	 -10.21713751129508	 0.031498668870372094	 0.1151666702857681	 -0.47111050038441354
1718170327	 1.150645733699575	 1.3380914553932846	 -10.00614965903759	 0.04746102186295355	 -0.027335267995061755	 -0.4582358808581026
1718170327	 0.6883227481618523	 1.4846106348715722	 -10.018145217257738	 0.09079434377336604	 -0.008531212888149165	 -0.23713670182652308
1718170327	 0.3070619158729911	 1.3402911573946474	 -10.29199722970724	 0.15888815208624885	 0.12018575522229391	 -0.07114600730395218
1718170328	 0.32445860248431563	 0.7830487581692636	 -10.551915409350395	 0.04729720000521085	 0.1389652104189342	 -0.12487647239641295
1718170328	 0.5825903371021152	 0.7341932495854795	 -10.59026939766407	 0.010041672554063442	 0.07379465416609049	 -0.2200127424648817
1718170328	 0.6640075873989612	 0.791792548051849	 -10.436791485089064	 -0.0025658038268854275	 0.10502079219137961	 -0.28978105492504386
1718170328	 0.7674016917042433	 0.8882030770801007	 -10.178913286840915	 0.0033256837887771966	 0.07722808466720471	 -0.31587950097560236
1718170328	 0.809199098470062	 0.8968426028706132	 -10.107292988741397	 0.02593546267244027	 0.12725024774454144	 -0.41031838902312023
1718170328	 0.9663963968943804	 0.8344435759723186	 -10.307351450705527	 0.04339163265471761	 0.0629212836856764	 -0.46967868511384603
1718170328	 1.0146426875386387	 0.5866331096868962	 -10.410505535709857	 -0.02030246292859696	 0.08589888776806875	 -0.4761541613043737
1718170328	 1.1469140728905796	 0.42681178290192034	 -10.609800612086056	 -0.05646247721909695	 0.007288990760357412	 -0.34436137633324093
1718170328	 1.3097551493555306	 0.2811886754805222	 -10.522907926052808	 -0.09706636277899006	 -0.0012099916368179897	 -0.21776838010097424
1718170328	 1.570275386545062	 0.3360335972048342	 -10.025511362111567	 -0.12704356979919448	 -0.10919563009521507	 -0.2915026554117256
1718170328	 1.3850997286751865	 0.7218815380882472	 -9.212593389248848	 -0.08299577586377338	 -0.1635646962499416	 -0.29213901775420004
1718170328	 0.9095770698245614	 0.9547489945247769	 -8.442123396015166	 -0.016290535582068683	 -0.09943810746678737	 -0.1733004308917011
1718170328	 0.4806148674231022	 0.9635098816726356	 -8.18185508776009	 0.06336165401667782	 0.060294004530096784	 -0.06662420528316063
1718170328	 0.4648761040866375	 0.7313690590102225	 -8.331482754647732	 0.12927559839830352	 0.2599512205816617	 -0.10829103749669922
1718170328	 0.9531288459770381	 0.5501431616794318	 -8.721361777678132	 0.16337045193793395	 0.36735354457784464	 -0.14292874313502868
1718170328	 1.7954430091939866	 0.22870182465706018	 -9.10967895821929	 0.10016505889821653	 0.26326366034550225	 -0.07946866034893722
1718170328	 2.231603306405991	 0.26457970518078655	 -9.424722812756896	 0.08096656362643069	 0.12782473320356358	 0.06407302179454082
1718170328	 2.068465877342969	 0.1565930489208549	 -9.951617273861169	 0.025362843506775805	 0.05445620977902098	 0.18303947784006636
1718170328	 1.5499404545247555	 0.41693321683574464	 -10.307314041304588	 0.016450759051447876	 0.1522853934403722	 0.2430734205285277
1718170328	 1.3423779005408287	 0.31165644058901815	 -10.636180084967613	 -0.014679864077167168	 0.08325958693688094	 -0.0016042411672108714
1718170329	 1.1783854620836673	 0.7524900268416851	 -10.60530096257925	 -0.06280299356019566	 0.14328249415157526	 -0.06567767205866523
1718170329	 1.5598101066321133	 1.06585323481597	 -10.664304940211773	 -0.01661465997178544	 0.03735062622890115	 -0.025364872086512388
1718170329	 2.1646086222805083	 1.2606260845273733	 -10.794574995678662	 0.0713555647922278	 -0.1963814654929294	 0.03924189088296694
1718170329	 2.0910097175844014	 0.8462490184478462	 -10.760068330442905	 0.05494598590943257	 -0.3119095933176485	 -0.07899418491122598
1718170329	 1.62909684721753	 0.6804799257069826	 -10.754873099887371	 -0.06055853548893651	 -0.37240449590128893	 -0.16613373124024336
1718170329	 0.9607838177096099	 0.849457166839391	 -10.920886668908595	 -0.05226413691864154	 -0.2866717144838355	 -0.2344870729237328
1718170329	 0.5115385596055537	 1.0238896046377717	 -11.048997500514984	 -0.039614521214928665	 -0.25622682308669953	 -0.2895834816616736
1718170329	 0.20875189163265748	 1.2451749790258706	 -11.105379312950372	 -0.014761676177794942	 -0.019202336049420444	 -0.3539239555698748
1718170329	 0.4968189467163756	 1.140488423757255	 -11.058914498895406	 -0.0631534946879745	 0.012732070708072545	 -0.37972918758441565
1718170329	 0.6541079054795205	 1.128603047913313	 -10.899493167746066	 -0.036032615321853326	 0.0227068999993696	 -0.36873019912433386
1718170329	 0.48303935462366787	 0.7545057505782693	 -10.807855333012341	 -0.15337014888663192	 0.04410956678914333	 -0.4089013210070891
1718170329	 0.35675117186717686	 0.7096448645886033	 -11.114832200950383	 -0.17387542401580602	 0.09598866470961906	 -0.45508063417760397
1718170329	 0.4987240131527185	 0.6828522077962755	 -11.43345391397476	 -0.1459018295969659	 0.03716507880232829	 -0.44254240518648363
1718170329	 0.5130351913714781	 0.5923127992911263	 -11.54589605180621	 -0.13792264943119542	 -0.029782007715274623	 -0.4730724511594749
1718170329	 0.4133292009944096	 0.8300289744004606	 -11.428112552946805	 -0.12099892649401438	 -0.0023369025304498647	 -0.5068645032831633
1718170329	 0.32891576455626637	 1.123397588224709	 -11.132566595083475	 -0.0515895956652273	 0.013140985569589302	 -0.48622383970207234
1718170329	 0.30561012789579106	 1.2013825990505516	 -11.085776786857842	 0.04197099433835006	 0.11049784928923656	 -0.42110262683080074
1718170329	 0.6241149182759225	 0.8946302605833858	 -10.831271279913187	 0.10521205709191774	 0.12309203795276216	 -0.40261136727599905
1718170329	 0.8688282953288405	 0.44881694968938823	 -10.628526355344057	 0.06410520859302794	 0.1241553216627331	 -0.44752011957995075
1718170330	 0.9158755854468792	 0.42086299403272565	 -10.549483798289298	 0.008758026828050647	 0.18698701494486356	 -0.45468595370405424
1718170330	 0.89194854721874	 0.46010903581529855	 -10.680835219252108	 0.03221242725143235	 0.20633238355076727	 -0.5396622975033843
1718170330	 0.7489875716786831	 0.577296797271259	 -10.872560737156867	 0.05208064511953508	 0.3242360677125939	 -0.6253692795477777
1718170330	 0.7510160818316042	 0.7597645478893071	 -10.581451300436258	 0.17589088768402117	 0.4684135504380039	 -0.6510548690503466
1718170330	 1.245676937198639	 0.6601354221407324	 -10.385106890559197	 0.17804673323119713	 0.3781633487319899	 -0.7727239134536522
1718170330	 1.5243499400638043	 0.7946163002356886	 -10.313915631526708	 0.10693289191978606	 0.2844824296202222	 -0.8009986281679962
1718170330	 1.716428363059461	 1.053605017009005	 -10.012462495446204	 0.11210663161423981	 0.20470246238461154	 -0.6708912246927201
1718170330	 1.7305936665341257	 1.1345964431092141	 -9.587406360572576	 0.11070730690897129	 0.0635818142150433	 -0.5202804768800602
1718170330	 1.5262779855169355	 1.0908876497641204	 -9.331244903114438	 0.08234123744685916	 0.062365864795583564	 -0.48246318992677145
1718170330	 1.4112588368043302	 1.0742525221098214	 -9.194584854349493	 0.10892661753560344	 0.04206658101553789	 -0.6063338696032455
1718170330	 1.3729608164615927	 1.1562240452885626	 -9.281035641834139	 0.10806203893246603	 0.07959124066048652	 -0.6808992509111833
1718170330	 1.6565272904567419	 1.2777293411500752	 -9.349002093601227	 0.16393903683066588	 0.010107220646690318	 -0.7169523933793763
1718170330	 1.7554899151206016	 1.2600012306272983	 -9.465770862460136	 0.16989780983544772	 -0.02853263562413439	 -0.6702139828275129
1718170330	 1.7159464247614145	 1.1809462524823844	 -9.683587099432945	 0.17473236267556627	 -0.057524341963549594	 -0.7165654360729878
1718170330	 1.586941713055223	 1.1203052482325584	 -10.132130492877959	 0.1745390171804265	 -0.044398157743956244	 -0.7702780663085235
1718170330	 1.3993202694684266	 0.843867676269263	 -10.29477955390215	 0.12827346752486352	 -0.06712634430669506	 -0.793842914056035
1718170330	 1.3396743406705558	 0.6762783092986792	 -10.125151301515102	 0.1053736527134367	 0.0018541822164810356	 -0.7689809736996003
1718170330	 1.479442876844853	 0.274090132054314	 -10.14809612377286	 -0.025986014879475938	 -0.05936940493389171	 -0.7966990211670906
1718170330	 1.4891352726891636	 0.054299649566202424	 -10.147624999129771	 -0.03322732465334793	 -0.15663939550654274	 -0.695295567394852
1718170331	 1.3736761251240968	 -0.15522369679640977	 -9.932047480994463	 -0.09415907304073462	 -0.11695350989677836	 -0.6353901555185005
1718170331	 1.2594190468251705	 0.02174206800502725	 -9.485066514560579	 -0.12563251886275123	 -0.17727862763854785	 -0.6957874532481896
1718170331	 0.9599619068674743	 0.6057527841659263	 -9.233743729305267	 -0.061095237349993135	 -0.14936934856003312	 -0.7799043283847238
1718170331	 0.6264281636543572	 0.8511636054310947	 -9.225080530378222	 0.024700833674647146	 -0.0919261622695145	 -0.7885769790535941
1718170331	 0.5545056312052533	 0.9608595863595605	 -9.479121342420578	 0.0893055784673629	 -0.015185063655360598	 -0.6725127569014421
1718170331	 0.5771867975581437	 0.9198220580503343	 -9.743924956017732	 0.13331529752157428	 0.06717286224079819	 -0.6466336887456788
1718170331	 0.7478842866118997	 0.7316000182218849	 -9.981770420062542	 0.12390996130255275	 0.0408846368342471	 -0.5854337142634399
1718170331	 0.9380968426704406	 0.508417431910336	 -10.148105476123094	 0.08124230899017318	 0.0880284762113722	 -0.49413981972622384
1718170331	 1.1436576283778994	 0.31579744938388465	 -10.30912021394372	 0.01210687595712233	 0.07067309647338137	 -0.3928465875336009
1718170331	 1.2726089293964207	 0.3545003607330844	 -10.379555101650952	 -0.06088458130776787	 -0.012564932382534854	 -0.38113110887174695
1718170331	 1.103677354036644	 0.5120558980105444	 -10.590478656500578	 -0.0846973943199011	 -0.01777173584610032	 -0.45672000956562947
1718170331	 1.0488342954758554	 0.7309875854119658	 -10.53879406197071	 -0.04586509761258835	 -0.22679110329513544	 -0.5750081709650795
1718170331	 0.5843431721188128	 1.2979375780507922	 -10.29563529394865	 -0.028571671740050066	 -0.19656981756102526	 -0.5839091876974241
1718170331	 0.2433623825690709	 1.6843657299749553	 -10.063708698558807	 0.09602665636704472	 -0.15102706647006658	 -0.5128893726172497
1718170331	 0.08275312940995208	 1.386146168988198	 -9.889946707367896	 0.12989201199973757	 -0.17056423260872644	 -0.47886126455243927
1718170331	 -0.10586733515155501	 1.0260466365411878	 -9.98816976571083	 0.0785723069050438	 -0.08089654745689683	 -0.4479455262745773
1718170331	 -0.17160269426517188	 0.89619824055247	 -10.250940412175655	 0.06229747981221738	 -0.01679265588025171	 -0.47738876949622083
1718170331	 -0.00021467137220897712	 0.8719912163391709	 -10.51184760285616	 0.013664298804384474	 0.0035168326961662845	 -0.5414127599983798
1718170331	 0.1116552800363861	 1.0322856770612299	 -10.819857905495166	 0.025634731448126877	 0.04035984429669017	 -0.6617578471552661
1718170331	 0.17393539326274768	 1.0697578410390765	 -11.214903517508507	 0.04418101856895232	 -0.0073707191170524705	 -0.7067735253769845
1718170332	 -0.14389542511226608	 0.7310512982979417	 -11.278740322124957	 0.0273122691023354	 0.05417341119957898	 -0.6434048056610395
1718170332	 -0.6607440555583686	 0.29648784182332455	 -11.05200545015931	 -0.13587458700676203	 0.16738085628921384	 -0.6812019191690708
1718170332	 -0.7237721741404384	 0.36704741535615176	 -10.921109956270456	 -0.25394131488395033	 0.2935025895218342	 -0.6734838785929395
1718170332	 -0.36608766694590444	 0.8819261887677013	 -11.234910532748698	 -0.26657243826284394	 0.3081732448872946	 -0.5967604046956559
1718170332	 0.2012241630089469	 1.3024766827851533	 -11.264266391092539	 -0.1941127019155341	 0.2697348754782858	 -0.5912860107588891
1718170332	 0.710214846496284	 1.5758837279461324	 -11.504341221624612	 -0.09611657966572693	 0.13602286682283057	 -0.622867972072948
1718170332	 0.7481861921679228	 1.6578187915720044	 -11.633335850328207	 -0.0486922262020324	 0.07578822997909655	 -0.67741510383606
1718170332	 0.5464250179391354	 1.6950103119775652	 -11.527672997373342	 0.03556873011066435	 0.06510951992961045	 -0.5903379254108209
1718170332	 0.38713392557334153	 1.5550095744825898	 -11.406056203961372	 0.08565313625610328	 0.07456568923593887	 -0.4793102735122266
1718170332	 0.385639668427594	 1.4045457490317523	 -11.398014351803063	 0.13258946961123	 0.17742340373330726	 -0.4660288561294061
1718170332	 0.7364335027929395	 1.088233774254471	 -11.290901884561777	 0.144119542326944	 0.23975973240792617	 -0.5199223815819853
1718170332	 1.1749807682067155	 0.9369537370499222	 -10.917010119736194	 0.17533085819629113	 0.21886868175009727	 -0.4889456236256469
1718170332	 1.2990405708566308	 0.8770442619450389	 -10.4617494007349	 0.1693914596884396	 0.22790447107835668	 -0.4249228648354922
1718170332	 1.2860019333243369	 0.8301723283939063	 -10.21601756735444	 0.18992126918915606	 0.2796051829788783	 -0.35161319727104035
1718170332	 1.3637619032226502	 0.5636195695744827	 -9.929624053239822	 0.13980232517333016	 0.21850550980119454	 -0.2835257555776385
1718170332	 1.1445944708365947	 0.2443869946427643	 -9.71958955618441	 0.09207172899022255	 0.314224712542768	 -0.20653475050409967
1718170332	 1.283150343285501	 0.4288685327686369	 -10.002819053310155	 0.026621628207893787	 0.2837713323196574	 -0.2199430675128625
1718170332	 1.4871690871827303	 0.749448832514882	 -9.984825131458043	 -0.05451739174387635	 0.18189180521305354	 -0.2925507757482399
1718170332	 1.7935063420429824	 1.2607511722117661	 -9.756287009462714	 0.023585227171634547	 0.055306944105679184	 -0.2345078289354786
1718170333	 1.8360189113408325	 1.2748711752399802	 -9.77982745952606	 0.061098391531409196	 -0.09151165789060048	 -0.1164235574846094
1718170333	 1.4076729411415756	 1.118760503008589	 -10.02289738022089	 0.08377450913364777	 -0.10402650932077692	 -0.1341758064816709
1718170333	 0.8089979498747736	 1.0120590277209878	 -10.335901837885379	 0.06277273755349883	 0.023009441340986408	 -0.20736953499254182
1718170333	 0.6869641731597482	 0.9584225684709846	 -10.284192693436145	 0.08546526688595502	 0.09795292078349903	 -0.2681490962071981
1718170333	 0.9785925922531634	 0.8543678082998841	 -10.163570756280421	 0.06856225418743854	 0.12142979266887557	 -0.31519526831253375
1718170333	 1.3741126168452202	 0.7900171358771622	 -10.10868648892641	 0.0785119696615967	 0.06746635923768173	 -0.39673836470307455
1718170333	 1.4610118787497282	 0.6841735925931484	 -10.329417152041197	 0.027600248362335437	 0.04343600757638106	 -0.4800646804700188
1718170333	 1.3610361315205692	 0.7501382760837674	 -10.316805507749319	 -0.016996156757641993	 0.003801475722722617	 -0.5094098527845202
1718170333	 1.0779574410423636	 0.8347238542184233	 -10.080122073221206	 -0.010337515421360318	 0.11877758382877929	 -0.5021382578756269
1718170333	 1.1347533872365951	 0.9564300794795155	 -9.994967755287885	 -0.024321951155907538	 0.2005906748195837	 -0.5216284691553174
1718170333	 1.5389289389058947	 0.9451976876515894	 -9.850179345124959	 0.03341023804715513	 0.08342323818586632	 -0.4841282315298026
1718170333	 1.8002552317813039	 0.5273354828700423	 -9.797741886401177	 0.02175407297620429	 0.016081557539389627	 -0.5345111780334394
1718170333	 1.8775335556425152	 0.3630994814479723	 -9.63978712067306	 -0.010460328759505004	 -0.10178671594261463	 -0.5460594767578636
1718170333	 1.6860003454394639	 0.5903812832392752	 -9.40921486250162	 0.026878702315681298	 -0.060750520275206804	 -0.44568813106608524
1718170333	 1.5487031678147614	 0.6954159212931991	 -9.169593620955943	 0.04374831730965249	 -0.02058105870694367	 -0.3796774223907272
1718170333	 1.6696657351016997	 0.6345533832471817	 -9.023444443833828	 0.04205098903959332	 -0.026493798556164586	 -0.41204441701511424
1718170333	 1.6728779751464724	 0.5789548301439732	 -9.073450876018404	 0.015111787194085987	 -0.038019791225864796	 -0.41598349858345046
1718170333	 1.6682180205114185	 0.5577559017054736	 -9.23252500116527	 0.0007921086973638377	 -0.0064626332002004905	 -0.29988145954381923
1718170333	 1.5992372771352528	 0.5214899351796135	 -9.53751157206893	 -0.01689082873652936	 0.029454112247842425	 -0.2094413910968394
1718170334	 1.4623252994358538	 0.4389152219433337	 -9.906467634057998	 -0.04611574684424604	 0.09319412655401485	 -0.23349233232231775
1718170334	 1.348683576556295	 0.8559004246946423	 -10.157871667855977	 -0.06023930985920928	 0.20353338460033718	 -0.19343139872966456
1718170334	 1.5125043117083607	 1.0351073103532193	 -10.381994896018504	 0.052155629748977625	 0.2399851689942014	 -0.27814339050129067
1718170334	 1.8807557325594126	 1.1593338478721678	 -10.23589832586646	 0.06039755572341963	 0.07348363024028286	 -0.4147460607829451
1718170334	 2.022834591502696	 1.6996645675241946	 -10.053349801629782	 0.13828205966505844	 -0.007444223403435958	 -0.3639809839523956
1718170334	 2.2658481058351696	 1.734186284198612	 -9.940874930572509	 0.22022170074191205	 -0.2533313844152949	 -0.20242171458231087
1718170334	 2.015425192029029	 1.1778147495236246	 -10.013769486391544	 0.16042141714959152	 -0.301582320663512	 -0.24152362722166973
1718170334	 1.644590330556035	 0.7825445349741726	 -10.014197356414794	 0.06315659893512013	 -0.4224195932793586	 -0.25917256221319296
1718170334	 0.931646570552513	 0.5727962344489992	 -10.035330160814523	 -0.05075714144273896	 -0.3381181943687954	 -0.2064139927934214
1718170334	 0.47003239087127147	 0.7500366423401981	 -10.097964019382	 -0.07851732095091207	 -0.25680692615114603	 -0.19760663610766355
1718170334	 0.3131824811125174	 1.0544702555362135	 -10.186077187120913	 -0.0791398598228533	 -0.15147191424065068	 -0.2719634086784641
1718170334	 0.41654776118211445	 1.354534348411113	 -10.345454094606637	 -0.049644106554653976	 -0.09743492762910021	 -0.42272495798784976
1718170334	 0.5086643193434923	 1.6188076545238494	 -10.656475854021311	 0.0007813384343899478	 -0.060529040979863884	 -0.4605886172336195
1718170334	 0.5520820573201403	 1.6182773470394312	 -10.789218437081574	 0.05425735070818692	 -0.019251827153209285	 -0.4847561050463024
1718170334	 0.4248467664392665	 1.5106721278451383	 -10.82205336971283	 0.01899620530045371	 -0.02652226317090941	 -0.4833024851443099
1718170334	 0.15721848734281957	 1.169549463872984	 -10.746367137348651	 -0.009843186949960376	 0.06406035929579533	 -0.4462526546381548
1718170334	 0.08492540454827248	 0.7846222180310636	 -10.305210931545496	 -0.0296692644550018	 0.0663858065925173	 -0.4134452064589823
1718170334	 0.1496175656187348	 0.48357656677290795	 -9.739794139823317	 -0.07344250104619794	 0.07041023415141213	 -0.35948946290543604
1718170334	 0.3348838426478207	 0.48398343054074794	 -9.619927404949069	 -0.0999814672305692	 0.07736584499696746	 -0.3398426244641354
1718170334	 0.5657765284126625	 0.7174347878124564	 -9.931065484219788	 -0.07792176322976468	 0.07215693493136785	 -0.3480497545744598
1718170335	 0.6764823074381798	 0.9481464544545859	 -10.449558612203598	 -0.0469965291181409	 0.10942776619610751	 -0.3298727480282875
1718170335	 0.7242991206239908	 1.1114084597453475	 -10.909945588177441	 0.020838207716136835	 0.14086530927767849	 -0.2951283162092731
1718170335	 0.7346021957125515	 1.1364601180892437	 -11.522053403925895	 0.011323064996122678	 0.26265501152312143	 -0.2555871650823761
1718170335	 1.2930968600213526	 1.1951940466087312	 -12.090346627867222	 0.053368762043346764	 0.2600098933494275	 -0.2148087259577851
1718170335	 1.8665777157336472	 1.1246242074102162	 -12.262158654034137	 0.07488387872955449	 0.12682425848342646	 -0.14399269263527215
1718170335	 1.8986336268164217	 0.8590892107985914	 -12.170586285752057	 0.03575659948081263	 0.04880494865635921	 -0.12160342244957034
1718170335	 1.5147557438969612	 0.9232833044201135	 -11.934095743447541	 -0.005199538027216591	 0.03623350089182937	 -0.16269530731208526
1718170335	 1.0291294049873947	 1.163150337420404	 -11.313206070828437	 0.003379809937189805	 0.08097857281847126	 -0.27513004037262284
1718170335	 0.7946640849001705	 1.4164657577976583	 -10.80036059334278	 0.0799122015061115	 0.08570056549064192	 -0.19832547322014638
1718170335	 0.7625451185185462	 1.2768363378331065	 -10.554355203717947	 0.08065831937501083	 0.029524606954134662	 -0.14641598613491932
1718170335	 0.6248207284577191	 1.3382700268305838	 -10.456316854292155	 0.06177069406503209	 0.007563068007378045	 -0.11395276817139637
1718170335	 0.42842857044879346	 1.1630687966167925	 -10.338338125121593	 0.001216981394382147	 0.03680714995182164	 -0.08862918548475321
1718170335	 0.5031382493983954	 1.159492326369509	 -10.337874014741182	 0.00773561535873131	 0.11189750688964134	 0.00553333562138495
1718170335	 0.8562648010276257	 1.0306701316233724	 -10.237975716662406	 -0.026975722522549643	 0.09796142625423047	 -0.0826369065845068
1718170335	 1.1439083152033387	 1.191644756629318	 -10.129134233671426	 -0.01954314576754493	 0.03538645337880524	 -0.16092741775670658
1718170335	 1.2688241501607	 1.3533213193595408	 -10.099830982297659	 -0.000531162928115613	 0.02854210232957178	 -0.20755985114194161
1718170335	 1.242925884924829	 1.5535149520106613	 -10.15236430261135	 0.041157373658195634	 0.04093566549744654	 -0.24600637648178877
1718170335	 1.2072071404855698	 1.5589156420104204	 -10.392462514019012	 0.06256816516988871	 0.08306034087545099	 -0.3020940137774571
1718170335	 1.3246364921450615	 1.3209035892270504	 -10.36299793460369	 0.04910353062644912	 0.0739454140509242	 -0.3053336826645112
1718170336	 1.3301524790875614	 1.0041161058925092	 -10.251859280586242	 -0.05189806878205333	 0.08504288953706844	 -0.2020541484176095
1718170336	 1.3741899198651313	 0.8585308462634682	 -10.330375767940282	 -0.05364687096255669	 0.08184323464539274	 -0.12472401474638431
1718170336	 1.3337091486558317	 0.8079702142622321	 -10.183817425495386	 -0.09123778506199945	 0.07558632907895492	 -0.22207853987769935
1718170336	 1.294782036629319	 0.8636597335845232	 -9.863354468518494	 -0.013522470912175543	 0.0162358658783164	 -0.2951561462426644
1718170336	 1.1264796990837902	 0.8260572942905128	 -9.837388837134837	 -0.017629433578322216	 0.07068609602845231	 -0.2721507620611512
1718170336	 1.1503493080362677	 1.102819202837348	 -10.096249032157658	 0.07475234353883979	 0.09399914189489696	 -0.2382367038700235
1718170336	 1.3093961067847906	 1.1737576561525462	 -10.273727413523197	 0.13527801395544906	 0.14490988531469545	 -0.23917060788528702
1718170336	 1.6188152533084152	 1.0257378628529608	 -10.250666855931282	 0.18997967564081286	 0.059430033460583044	 -0.22723543507825836
1718170336	 1.6652822593204677	 0.7507764278568327	 -10.100036734002828	 0.178992088839148	 0.009670084599997129	 -0.17684115349523188
1718170336	 1.5601779170311987	 0.35855968259386717	 -9.976535442018509	 0.08157421376340271	 0.028781863809679172	 -0.0867403218368577
1718170336	 1.4478941846318543	 0.18325785981612278	 -9.969942035102843	 0.01722319748235505	 -0.006304498647801329	 -0.0014243087453191408
1718170336	 1.2137177644886075	 0.23217808593288064	 -9.747725517344474	 -0.06394173627517831	 0.15908054883025025	 0.04227814419700947
1718170336	 1.4051644654519855	 0.5536678286742419	 -9.753613406339287	 -0.08786063048366997	 0.18175197261106757	 -0.024572304943131798
1718170336	 1.6386095025807619	 1.1125598217375576	 -9.541046175935865	 -0.0883154983978555	 0.042316302302003256	 -0.09455180607773724
1718170336	 1.7111312795646487	 1.8256262582726777	 -9.307241511714459	 0.03757306259776082	 0.03343307049231336	 -0.015615403439787581
1718170336	 1.794371580570191	 1.7815489238761364	 -9.209067553210257	 0.12116371790884144	 -0.081211083426392	 0.02629014787596299
1718170336	 1.6170381606332958	 1.3888552818164228	 -9.274996361669897	 0.09451416396020465	 -0.08300085251460135	 -0.047105531469320006
1718170336	 1.4578423088029027	 1.055817578491941	 -9.372938264983892	 0.040746173263508996	 -0.08505105379028521	 -0.09399756064299972
1718170336	 1.1724047071736305	 0.9895523046195507	 -9.33292072737217	 -0.0003097191329180853	 0.011085952112943154	 -0.04837364555663167
1718170336	 1.46195032864362	 0.9543046117581426	 -9.302987945923208	 0.007921300624696532	 -0.06786530493016481	 -0.08678671909647392
1718170337	 1.5944870138682423	 1.1329808246061206	 -9.356471698829532	 -0.008477292198453466	 -0.12233401908274155	 -0.1582526885606423
1718170337	 1.6998538064859807	 1.31108990509063	 -9.616113984140753	 0.008135475992690447	 -0.13401639964567286	 -0.20268428562103585
1718170337	 1.6375493260033427	 1.454669523985684	 -9.86612627131939	 -0.00393485327995705	 -0.235462838502381	 -0.23205850303617592
1718170337	 1.2296454014606772	 1.5193015706330537	 -10.057482371389865	 0.0437320595434354	 -0.09887370040801552	 -0.21780516501353095
1718170337	 1.0968363290354608	 1.2670340518735348	 -10.066312159055471	 0.002197268625248347	 -0.10550958211995003	 -0.23095552158120597
1718170337	 0.9284066387832164	 1.0428102859459816	 -10.120578002250195	 0.061270465027341944	 -0.09388720590532956	 -0.15290143253477798
1718170337	 0.9470598282616585	 0.46282161924224346	 -9.979449868160486	 0.012008925724467058	 -0.14774625174417072	 -0.10932769791814778
1718170337	 1.1406216216828673	 0.5396637071106583	 -10.06730117009282	 -0.023752937660687683	 -0.18289378628368222	 -0.20814458144878215
1718170337	 1.1243084925245492	 0.9025513359062373	 -10.105781415134668	 0.025638930088032957	 -0.21260151469108426	 -0.23855571727910135
1718170337	 1.1150579952288417	 1.1376664251390844	 -10.176355419051646	 0.11610745690797382	 -0.2713317401574109	 -0.10573951279056473
1718170337	 0.8037786808565258	 0.8730237011920661	 -10.265787268173694	 0.1494329814653292	 -0.24830210456522114	 -0.0234531135756206
1718170337	 0.45730424406025555	 0.5106593656182289	 -10.396334387016296	 0.07341612742902776	 -0.14412162292154562	 -0.029991858567389063
1718170337	 0.12923380775433033	 0.4693350197242573	 -10.503864202886819	 0.025217563908122777	 -0.06657920202192749	 -0.01147596165161225
1718170337	 -0.11411473808563313	 0.5915170823361724	 -10.604669678938388	 -0.01812826029525087	 0.07249355849315386	 0.1174432236093519
1718170337	 -0.25232865609591826	 0.6648192691080271	 -10.703331128698586	 -0.016627275657152392	 0.2114066708232634	 0.15108813608281346
1718170337	 0.13169746705465948	 1.0414211696751414	 -11.176423272466659	 0.003040129721859678	 0.2693534275864024	 0.14139441280724996
1718170337	 0.4236771381380036	 1.1469457832030951	 -11.513963620972632	 0.03036516509259632	 0.24795261460641868	 0.013089462765171976
1718170337	 0.6011051410231739	 1.3737342850521206	 -11.59343872422576	 0.08406548444987415	 0.16748706648243758	 0.024269455673513952
1718170337	 0.4517534050000831	 1.2446268436238168	 -11.291427954262494	 0.11254284075603797	 0.07372863273819175	 0.11954488215072315
1718170338	 0.2381886331929825	 1.123072155662626	 -10.9250180696249	 0.07440165515754679	 0.11567661570024784	 0.1331803335109561
1718170338	 0.5111057211462408	 1.0517607043165713	 -10.781509762400388	 0.02675365858012367	 0.10297486861819667	 0.1425784542278992
1718170338	 1.1303685232158749	 0.8941635198544711	 -10.876465343379973	 -0.07277164244522859	 0.04388497076308718	 0.08676548870915894
1718170338	 1.5567849135920404	 0.8723273894909769	 -11.196167252856492	 -0.09344799238492665	 -0.11340511406035679	 0.015558909054569673
1718170338	 1.6732510462425647	 0.6844913533054292	 -11.584639331698417	 -0.1584189197469337	 -0.19524912268694133	 -0.06893941189325341
1718170338	 1.16222986157462	 0.592353204366751	 -11.913331187838315	 -0.2020426136011381	 -0.19384135908996863	 -0.15671471303112156
1718170338	 0.4044458199780434	 0.596697809442319	 -11.20609477263093	 -0.3002882906898425	 -0.07941413212561785	 -0.31653806742366536
1718170338	 0.1384673630483914	 1.215965835676342	 -10.975277599787711	 -0.20217846810624576	 0.10988769411636419	 -0.3250935057150585
1718170338	 0.5905647135147825	 1.5714002989217637	 -10.997995627552271	 -0.13306745709262877	 0.12013201762492315	 -0.3814251551456053
1718170338	 1.15692386412099	 1.8416405506148934	 -11.106867505681514	 -0.02646324502443973	 0.0053784317122534606	 -0.46690759942059135
1718170338	 1.2275509133994578	 1.5890230493739246	 -11.199557479816674	 0.013557789005538117	 -0.13220964458313586	 -0.4453400892011255
1718170338	 0.7702713288564235	 1.2205595201421529	 -11.071432619684934	 -0.03356965112493699	 -0.15060768517740636	 -0.37138813376077384
1718170338	 0.28954828835111107	 0.9318187122490257	 -10.60806107494235	 -0.0602265266859769	 -0.08396222870098473	 -0.301304619540844
1718170338	 0.17580292243398726	 0.7632098660375922	 -9.94175288245082	 -0.08271341420919773	 -0.039113855252372175	 -0.32005417243186973
1718170338	 0.3714651587331667	 0.8616578191775828	 -9.638923197320103	 -0.06855485143184596	 -0.04826746865292158	 -0.3445055199272415
1718170338	 0.5597577795797959	 1.0720701365694403	 -9.594252280944586	 -0.06885036244430388	 -0.07003408761457366	 -0.3264891019948009
1718170338	 0.5447203694457188	 1.3284982821397482	 -9.592280104088783	 0.03758561274439782	 0.021243848762047938	 -0.3209463979760735
1718170338	 0.5524463240552693	 1.2928650970920919	 -9.629382046514749	 0.0899201278560339	 0.06107372400181234	 -0.30974034874123807
1718170338	 0.47088429499287154	 1.1437781129524112	 -9.66593395384252	 0.11653089952129642	 0.14752134779011353	 -0.27796474232641677
1718170339	 0.5015298643536865	 0.9597561551623046	 -9.683021282243729	 0.07492246959822542	 0.2128100734939511	 -0.21768022946889262
1718170339	 0.549145455878973	 0.8246087759826332	 -9.812565361523628	 0.03167680729956857	 0.2515909587086577	 -0.1558244515682217
1718170339	 0.5752195526057854	 0.7467261295527219	 -10.027796842700242	 -0.042761574513886104	 0.32272116181601596	 -0.12731953986715394
1718170339	 0.6983934757992625	 0.8646142578303814	 -10.159491962534188	 -0.10370458307925678	 0.38908843447182195	 -0.16395220283330494
1718170339	 0.9188240599889308	 1.3632723661400377	 -10.00777112275958	 -0.053760067792452675	 0.463147349119454	 -0.11757524982039258
1718170339	 1.4349509702980519	 1.746823355192691	 -10.212420419645309	 0.04493312438911512	 0.5079055662427889	 -0.18950520020310163
1718170339	 1.8509405861407517	 1.8978537284851074	 -10.228672466266154	 0.1233627316328119	 0.24608495637870292	 -0.2926513100793904
1718170339	 1.795362783564627	 2.2360374894611534	 -10.00383378331065	 0.18674148813711508	 0.20490755907806127	 -0.18893203800224612
1718170339	 1.7958406302094458	 2.0189576039388775	 -9.712231010115145	 0.28538111333006944	 0.13433855059140998	 -0.08242653350314735
1718170339	 1.7030397430457174	 1.4159202527441084	 -9.560196866607665	 0.2499205075596623	 0.16389186558985785	 -0.11229877868688902
1718170339	 1.8016965166307986	 0.9286527224987745	 -9.560193943998216	 0.2007574386380931	 0.141683415719794	 -0.10673744918528787
1718170339	 1.9913409904778003	 0.4987637606412172	 -9.623699324703216	 0.06211334718997362	 0.0766504117372529	 -0.11023073423190162
1718170339	 2.0324412087596953	 0.6161232619348913	 -9.815203893333672	 0.001959955094726929	 0.13487639261830828	 -0.16012707127011053
1718170339	 2.2878207220599056	 0.7722294771868735	 -9.895264687520266	 0.00041205083773005483	 0.08593156974807108	 -0.26753295724425147
1718170339	 2.3555690010316668	 0.8878119588706642	 -9.861880304312706	 -0.04621703435064232	 -0.01243186067270686	 -0.4246131059112023
1718170339	 2.2090952681303024	 1.0522758142318576	 -9.644293784442544	 0.0026483547986711035	 0.014836605671480542	 -0.4679165379995679
1718170339	 2.3779855616316197	 1.0135369913190602	 -9.758531573519111	 -0.03680212739645332	 0.0018842215812649634	 -0.4194517998500879
1718170339	 2.6507383806675673	 0.9208484784886241	 -9.939030179488658	 0.012809460504874567	 -0.21983522613347112	 -0.3671580685538328
1718170339	 2.4626219931706785	 0.4902838093265891	 -10.077617981445789	 -0.043902281310172694	 -0.3266252561055312	 -0.42658807288609146
1718170340	 1.9856417559228836	 0.6771112529914826	 -10.055673860663175	 -0.014227074676988655	 -0.349548881241579	 -0.550055416815473
1718170340	 1.4538510472096502	 1.0122525775317102	 -10.008072736054658	 0.01459132333359774	 -0.2942682816247456	 -0.5139792712933645
1718170340	 1.0215664954524486	 1.2903073754332959	 -10.06079193432927	 0.12238529325610398	 -0.13392399627822552	 -0.3913743920830051
1718170340	 1.0985597187619656	 0.9777771842170506	 -10.159294394135475	 0.13253341839266222	 -0.2262975196766029	 -0.2608953444776084
1718170340	 1.002415439454466	 0.6139196874760091	 -10.271770434236526	 0.07261742877335618	 -0.19158431342136967	 -0.19151894946136502
1718170340	 0.8544964031156151	 0.5402837387051433	 -10.315576842737197	 0.016459081429854375	 -0.15313272807545136	 -0.19228695518547345
1718170340	 0.7016479475505649	 0.6465888350863009	 -10.350083507972956	 -0.014691455069692817	 -0.0771571114241541	 -0.1889222841747537
1718170340	 0.6033095922648907	 0.7466198926992714	 -10.290427203911543	 -0.03282081599948795	 0.0025253268992081255	 -0.14774858201012453
1718170340	 0.6670787384726107	 0.9114446903273463	 -10.083086768245696	 -0.0585490181600928	 0.09835849525038289	 -0.07079836491315597
1718170340	 0.853532161193341	 1.1075349793128668	 -9.992116457509994	 -0.018211045073854903	 0.08187690698842544	 -0.12810961653879638
1718170340	 1.1496851450391112	 1.2643382369183003	 -9.88729063990116	 0.01424154209155105	 -0.14666229524623803	 -0.1316445967012267
1718170340	 0.8553839265398681	 1.4843689350701867	 -9.776690915066004	 0.056758287837177505	 -0.13435103415901972	 -0.09294180868548665
1718170340	 0.6517514785464853	 1.3799306554742157	 -9.79064812874794	 0.07328787125540523	 -0.13835691113644646	 -0.11660315441062162
1718170340	 0.47215486291795966	 1.21188799177818	 -9.951245517939329	 0.021616110828765175	 -0.07093351201609908	 -0.2036836534648449
1718170340	 0.620968583074212	 1.1079627762708812	 -10.174703560191393	 0.0020943234051032235	 -0.10733309845259771	 -0.17786746920032118
1718170340	 0.7745113045137375	 1.1076254340752958	 -10.293140554523468	 -0.027120742046877467	 -0.11370401228082615	 -0.09692298484380292
1718170340	 0.8164997768722474	 1.1295439089599997	 -10.33325161563754	 -0.07006265833964316	 -0.19289086025216254	 -0.11314503141277533
1718170340	 0.4355796112472191	 1.2554646101109683	 -10.38064114332199	 -0.0937731477092685	 -0.155754377142039	 -0.19983951358937005
1718170340	 -0.14151064886758102	 1.3082384611822664	 -10.524480289936065	 -0.10909886580148272	 0.046154179587727245	 -0.23684550180607972
1718170340	 -0.3963979764703661	 1.2722658150471746	 -10.441652369123696	 -0.15358926046531818	 0.21037730912767733	 -0.29793831734395654
1718170341	 -0.06640870093107223	 1.5193302122056482	 -10.61712350232005	 -0.11601794972821193	 0.2134888300320282	 -0.2986429564788779
1718170341	 0.414073772284016	 1.2861037862636149	 -10.442215848225354	 -0.04635080409995916	 0.08188356489115063	 -0.2953767558494638
1718170341	 0.717720545951277	 1.10661764527224	 -10.296037445008754	 -0.023953070055417938	 0.05586764354487094	 -0.3481786848607333
1718170341	 1.0515423123255372	 1.0433655086759477	 -10.455571004360914	 0.012039572882948985	 -0.05476893563121273	 -0.4190435372549787
1718170341	 1.1549791597940027	 1.0915696406789124	 -10.727978078699111	 0.027464770444850663	 -0.12426112405941492	 -0.45695396826739293
1718170341	 1.015182420438528	 1.1688118703134358	 -10.841655895805358	 0.09556179327639298	 -0.1802484350833929	 -0.38554037153053666
1718170341	 0.5075184737766161	 0.9496906151566654	 -10.787835458290576	 0.053888964789212505	 -0.10832523414957151	 -0.3422611742080908
1718170341	 0.1753983236884698	 0.9113841923117637	 -10.749121404492854	 0.017359821807465318	 -0.015196998986292815	 -0.32721354839032973
1718170341	 0.1892304679523222	 0.9953136446252465	 -11.069393807333707	 -0.00719538428908168	 0.03558088078313784	 -0.2487901787692486
1718170341	 0.42634643041249365	 1.056496208405867	 -11.290574552303552	 -0.008041127789439235	 -0.03124963418012526	 -0.17021046494742303
1718170341	 0.33900698699243365	 1.0119343784280121	 -11.54994211232662	 -0.034213950935816625	 -0.00342894239848419	 -0.20149886268557116
1718170341	 0.12625420742165297	 1.1082907661162316	 -11.715532487499713	 -0.06768220012165424	 -0.03627058124881952	 -0.2905904894488598
1718170341	 -0.345780170921795	 1.3396649883203207	 -11.56018410487771	 -0.06654447689802638	 0.0699631892729287	 -0.25743961000236476
1718170341	 -0.497110550074093	 1.4231304763838648	 -11.327606352102755	 -0.08471243285768164	 0.12182026201895163	 -0.18722125660749286
1718170341	 -0.4590626685675233	 1.5578947745300828	 -11.035914731580018	 -0.10837852233850832	 0.04926895870322428	 -0.13982792480930856
1718170341	 -0.5563314949255437	 1.765796789601445	 -10.784802958726882	 -0.11641422809841573	 0.08371315656003507	 -0.14433172968679606
1718170341	 -0.5528484385827556	 1.9567136214718222	 -10.618350998288392	 -0.041051737709081965	 0.15006977657148077	 -0.1310888698831328
1718170341	 -0.29958178925067186	 1.8565644173718987	 -10.428248113149404	 -0.014805721325214028	 0.1913247217941142	 -0.12825237029560305
1718170341	 -0.07871562665533274	 1.7140166257426142	 -10.261259561616182	 -0.023192633534470233	 0.23172242875136473	 -0.15605498145008168
1718170341	 0.3346872606297955	 1.6792250060856342	 -10.114359858387708	 -0.038211089415916555	 0.2378454522163772	 -0.201113653078648
1718170342	 0.7783345891289413	 1.8000639469929038	 -10.077191280466318	 -0.029003501230211812	 0.1539691770395748	 -0.2516011120103136
1718170342	 0.8605096720557659	 1.822518355385214	 -9.973872360289096	 0.0050313573237834855	 0.05290916701822634	 -0.35351506047400677
1718170342	 0.5833290266402066	 1.7634323985576628	 -9.704179221084713	 0.014834082950526071	 0.06931932846751002	 -0.3439409630656583
1718170342	 0.17908515897504984	 1.5914597750015556	 -9.310749812096358	 -0.0011501101736258003	 0.298602543009336	 -0.3152455021885954
1718170342	 0.4379760048644617	 1.4547351365678012	 -9.265486775046586	 0.03337423543816862	 0.27624690355477477	 -0.3537491856233384
1718170342	 0.737234224716574	 1.2233487124692648	 -9.372878643751143	 0.04630760679484023	 0.28848203152433044	 -0.4062653574496423
1718170342	 1.1185264750570059	 1.0094148698877543	 -9.379024891421198	 0.03499774421176216	 0.22666713314639225	 -0.4888648632655903
1718170342	 1.3789315614342688	 0.9561499473638831	 -9.559812835726142	 0.04799937155493466	 0.07451397397652089	 -0.48864005918007397
1718170342	 1.3311692549146712	 1.0714577768247573	 -9.8281697578907	 0.08324259264017488	 0.0615493812172573	 -0.3729306366641477
1718170342	 1.3289870885699986	 1.099171201723814	 -10.072198294484615	 0.14311984158799868	 0.02468208751728651	 -0.31495072354543724
1718170342	 1.1467067868154495	 0.9675519966702908	 -9.92531963404417	 0.130309861974771	 0.10754022580637863	 -0.3610119255216071
1718170342	 1.2774664524301886	 0.8445487904012202	 -9.7965786878407	 0.08417434948180953	 0.06760100699792046	 -0.32902263371882057
1718170342	 1.3751483896337449	 0.7495283274918794	 -9.976409185290336	 0.044826668685728405	 -0.0056006454574907515	 -0.19448795795788307
1718170342	 1.2217967337869107	 0.7859665453121065	 -10.391098239928484	 -0.014412974764346496	 -0.03812031307344768	 -0.03102633020331672
1718170342	 0.8644877819065004	 1.053943016791716	 -10.415389800620078	 0.014776072852140882	 0.13687470386462766	 -0.014044627336372212
1718170342	 0.9411261273637413	 1.1371161708451807	 -10.458686506032944	 0.03974665145569943	 0.19116240212567387	 -0.30890647971442065
1718170342	 1.2675558837905525	 1.711439468730986	 -10.350704270219802	 0.04630080325049292	 0.08529077157790597	 -0.322512170249472
1718170342	 1.630698729456216	 2.0941353022590277	 -10.280437724816798	 0.17177735241952796	 -0.010026177325767844	 -0.10454065753635194
1718170342	 1.7031380888536571	 1.7023907776176928	 -10.139845012778043	 0.16813260008591596	 -0.14277594426748538	 -0.0516640185341274
1718170343	 1.5489705865792929	 1.448381383626908	 -10.115137272500991	 0.11055700475494995	 -0.20624654653988267	 -0.2627099225758475
1718170343	 1.077097755473107	 1.4229405067697167	 -10.045795440727472	 0.12442558257910571	 -0.2609369397248841	 -0.3443423680209605
1718170343	 0.4615813368575647	 1.3372444831751287	 -9.975968455785512	 0.09996731918727815	 -0.14763190226486544	 -0.2473410529515956
1718170343	 0.08985241262167691	 1.174556039988622	 -9.909724590027333	 0.078177809523819	 -0.07175615415444615	 -0.20701250495890308
1718170343	 -0.018056082101818173	 1.0365235338266938	 -9.972980379885435	 -0.0015533318781266994	 0.08860102255622562	 -0.18734439451839538
1718170343	 0.426280708232522	 1.1595666337147355	 -10.238410600948333	 -0.012720965534386374	 0.11766483190156012	 -0.2265124700660859
1718170343	 0.9234173060633242	 1.271800827883929	 -10.500087022435665	 -0.013803505147395359	 0.04870776824370654	 -0.3000831607068791
1718170343	 1.0403367354393005	 1.285642598492652	 -10.625401501321791	 -0.0256637037279545	 0.023649675670014463	 -0.38505301305105216
1718170343	 0.9101290776841342	 1.3974214501097797	 -10.427954683160781	 -0.03786570238966849	 0.06930469356508219	 -0.3905632265044806
1718170343	 0.9000028204672038	 1.5395255896247924	 -10.336120449072123	 -0.04250244477863219	 0.07877624678789502	 -0.2950794472032701
1718170343	 0.9329968161176889	 1.4315445228554307	 -10.276000034630298	 0.02569780051228592	 -0.021298426919637747	 -0.2690197002123018
1718170343	 0.8101756153520197	 1.0213223844982684	 -10.033688823348283	 0.002578453061840328	 0.07003525274755057	 -0.3448003984389405
1718170343	 1.0823342678871004	 1.0514891208335757	 -9.854866041636466	 0.04726142626163052	 0.009589695626076866	 -0.43119993552480895
1718170343	 1.2823191531583666	 1.1719171428523958	 -9.654362758514285	 0.07200287106230677	 -0.05259126464666574	 -0.4167939650821888
1718170343	 1.2747725371710956	 1.3180337328791618	 -9.52137642982602	 0.17723526804704998	 -0.12390227142490515	 -0.3494404905852128
1718170343	 1.0445330180853605	 1.0936603293478488	 -9.516279398947953	 0.189957055416304	 -0.16638375213233136	 -0.2869946893450348
1718170343	 0.4803352102315053	 0.7150712004862725	 -9.56421545459926	 0.15065725326319546	 -0.060372892355011976	 -0.23297651130868305
1718170343	 0.3005218465797603	 0.40337870220318434	 -9.679431733319163	 0.08047700803904688	 -0.010618879430824492	 -0.11378876738251792
1718170343	 0.61801163296476	 0.3538530027402565	 -9.810498492121695	 -0.010711275516190728	 0.0009717125803642556	 0.0024607457629223545
1718170343	 1.1141398574706167	 0.3410133583787828	 -10.000995345014333	 -0.056503548156533016	 -0.145376055018757	 0.016139575960153224
1718170344	 1.2995578727290034	 0.5210311950940638	 -10.185070640426874	 -0.09227867325167852	 -0.23111928934348902	 0.021004892472051374
1718170344	 0.9505050002794713	 0.7799497692406177	 -10.326803170150518	 -0.03943313081636985	 -0.19277408063836257	 -0.009260888858209153
1718170344	 0.5634362854294479	 0.7151454347662627	 -10.569557449024915	 0.009400081677355126	 -0.19085119510754128	 -0.0660220603995045
1718170344	 0.12796113920370117	 0.8677862389300018	 -10.910509067279099	 -0.012816050788275211	 -0.0915590788027607	 -0.06046831258463167
1718170344	 0.09251892841719091	 0.9095890525233	 -11.111418593114614	 -0.055056735960077034	 -0.15657692773422358	 0.021004083120751343
1718170344	 -0.04642023512772284	 1.1466346714273095	 -11.071394041240215	 -0.11069818558223778	 -0.21930209457275088	 0.14493382047499254
1718170344	 -0.34411516031902284	 1.4038792479470372	 -11.018861889970301	 -0.12261334306919883	 -0.17534945038965125	 0.15162869120507227
1718170344	 -0.6153090229425578	 1.5193433639481664	 -11.015087047606706	 -0.11823106988358141	 -0.12159592398662608	 0.0509955484557607
1718170344	 -0.7159202915962785	 1.696466502135247	 -11.149224299895764	 -0.10517609609482326	 -0.053045799665715015	 -0.025657896788421362
1718170344	 -0.6703397860951721	 1.873159724472463	 -11.352405277794599	 -0.0824618370323477	 -0.06657118757152203	 -0.011405043544318582
1718170344	 -0.6953527929291129	 2.00956711365059	 -11.493788263428211	 -0.015234461132392364	 0.006919162469175422	 0.09539919896946523
1718170344	 -0.5683115267829969	 1.8154731130488215	 -11.605794347929955	 0.006752589545220722	 0.11067826180833262	 0.11840846970169432
1718170344	 -0.3925873321410268	 1.6619895013853907	 -11.629511908125878	 -0.004823102807877143	 0.0888720075195196	 0.020874564026205623
1718170344	 -0.36128848650325085	 1.5571312428116797	 -11.180186424392462	 -0.03674035454273109	 0.1955407221815482	 -0.0702293389343685
1718170344	 -0.0814741863821633	 1.5437256716631351	 -10.60949549165964	 -0.05704774015815549	 0.21981425373988672	 -0.027232220305632503
1718170344	 0.4117559968609363	 1.5029856649957596	 -10.422649562489985	 -0.042930556246240835	 0.12401179392473466	 0.04352258111775465
1718170344	 0.4148970348330214	 1.4471189624756573	 -10.176938771897554	 -0.06180213601065184	 0.035598078978114865	 0.03368502633738087
1718170344	 0.14403058666610158	 1.3903174633234738	 -10.084638089340924	 -0.01823029265451453	 0.037546505888265684	 -0.11515447800140259
1718170344	 -0.562779575086385	 1.1287618186715989	 -9.94663714736104	 0.006394830263174104	 0.08089272748520825	 -0.20940355756460347
1718170345	 -0.9543014699529856	 1.0119739797860383	 -9.900745164757966	 0.005894782237214296	 0.25845409128536	 -0.1555247460770469
1718170345	 -0.6969921576339752	 1.0951729989331216	 -9.809343476867674	 0.010755557851394402	 0.38958052006224136	 -0.08836563240537625
1718170345	 0.14552291671624407	 1.1569395731467753	 -9.823480723291635	 0.07412861456678642	 0.32798846168851553	 -0.05027382347797082
1718170345	 0.9169342276543379	 1.0089511978987604	 -9.857718508458136	 0.11354760150105443	 0.1803674450946058	 -0.0291141472511262
1718170345	 1.2423501308634877	 0.7377340639974922	 -10.014959572958945	 0.1105525855720161	 0.04412690646455327	 -0.08366079215510139
1718170345	 1.0036245229832828	 0.5566029688106849	 -10.093704023849963	 0.06261081735922201	 0.030177501701313603	 -0.09573274325124084
1718170345	 0.6860247003525495	 0.46815563721396025	 -10.14982981569767	 0.017350519469001457	 0.08192027490230169	 -0.07817979024987974
1718170345	 0.4507824045434594	 0.5691708104934543	 -10.178928484410047	 -0.053592309449723693	 0.18124116166923354	 -0.010491374351853143
1718170345	 0.5083734831707551	 0.9080554862804711	 -10.115470449978112	 -0.03361325830719244	 0.30855577468837087	 -0.02513682435401214
1718170345	 1.069042020919919	 1.2052804102066903	 -10.093590626603364	 -0.0040239823116500865	 0.1332285949833354	 -0.14748511215453164
1718170345	 1.2123536365285514	 1.571256214275956	 -9.936246686249971	 -0.03301191445245794	 -0.003371137238667259	 -0.06911062402302108
1718170345	 1.0139704143002628	 1.8288582259312272	 -9.727208214494585	 0.03488087097120512	 0.032926893034657165	 0.05516899652240228
1718170345	 1.023292880853638	 1.8121911687687038	 -9.766119836691022	 0.05618029865684625	 0.04609206967767955	 0.048689575524509934
1718170345	 1.1780336529713122	 1.788719692288339	 -9.925461088341473	 0.06771310943505598	 0.040925711932872366	 -0.08455120342081257
1718170345	 1.33526952984035	 1.7424207363195716	 -9.857483530658483	 0.09246083347023994	 -0.02126902395672759	 -0.057516227644603256
1718170345	 1.5101291070096194	 1.5244380567386746	 -9.616807811623811	 0.10770389370012082	 -0.09206978987605383	 0.010456732451736096
1718170345	 1.4060940013870595	 1.3414711609594523	 -9.512064996123314	 0.06676695487877808	 -0.15978144289488866	 0.027206778794843837
1718170345	 1.144160682529211	 1.3026388876095414	 -9.595841011440754	 0.05312585678479632	 -0.0888875121104909	 0.01050163064294185
1718170345	 1.1349982288431375	 1.1892135108944029	 -9.741016959616541	 -0.008354792509944977	 -0.035235601947809066	 -0.024990710436923864
1718170346	 1.476331028434634	 1.1378696195609868	 -9.868775324523448	 -0.023482387541665456	 -0.1061238568701336	 -0.06921667192986587
1718170346	 1.41697575314641	 1.0495821181684732	 -9.964442853164673	 -0.018026238338960218	 -0.18351969571887808	 -0.1513169515547217
1718170346	 0.8183847869012504	 0.8625110019408165	 -9.902788653284311	 0.029181945506814733	 -0.15766664331801356	 -0.25313123121461867
1718170346	 0.28807708328738807	 0.7630251571204513	 -9.696841717803478	 0.0025999099738925557	 -0.09137108459693633	 -0.3102106629897461
1718170346	 0.0531305007555522	 0.4531303559090942	 -9.516243743112684	 0.03181616136479617	 -0.021011321509370393	 -0.30129436637064716
1718170346	 0.409678204206191	 0.30158609654409807	 -9.721327339762448	 -0.07104964248438335	 0.06020878753640345	 -0.199922471057326
1718170346	 1.0286905751787125	 0.5802210872201249	 -10.028183796191215	 -0.08022847685269363	 -0.03256926795096235	 -0.1943893710632797
1718170346	 1.3553167309604583	 0.9363037487085908	 -10.252122315436601	 -0.020751994117629326	 -0.14092371572933526	 -0.23112133664857704
1718170346	 1.2795401899643242	 0.9868714680377393	 -10.497022958689927	 0.03017786996655809	 -0.1642856805360533	 -0.3339273774984195
1718170346	 1.0028117452956735	 0.7901632663495838	 -10.663161615395545	 0.03404713302184758	 -0.15859487147120388	 -0.2802431432180068
1718170346	 0.8095170783780514	 0.6257431039996445	 -10.992336286616325	 0.027531091478372044	 -0.030378289483343368	 -0.13576087835059403
1718170346	 0.8480055797915905	 0.27926200000056994	 -11.201731901246308	 -0.06909730821757068	 -0.005253877956724516	 -0.12243601815249158
1718170346	 0.9091252344038337	 0.3080829660164192	 -11.1272603053689	 -0.11467248745599028	 -0.0006307011746005765	 -0.18501432830165782
1718170346	 0.7096880461432039	 0.6278257554925978	 -10.984638133329153	 -0.1060771017482459	 0.02361147803372324	 -0.30673190881583007
1718170346	 0.48790798357333987	 1.1248007330209016	 -11.0187145904541	 -0.034599068996577304	 -0.04029001121948125	 -0.35370008359074007
1718170346	 -0.0384757834958611	 1.4429552669249475	 -11.04113217396736	 0.02171618742910331	 0.04155729306895227	 -0.3745560304564503
1718170346	 -0.011774193387315607	 1.567892436931282	 -10.944928054231404	 0.07347472529538791	 -0.09505334589002641	 -0.25518286393938844
1718170346	 -0.3375404581038281	 1.306875210005045	 -10.564621746188402	 0.007102232427726402	 -0.062260349520956784	 -0.175181870978058
1718170346	 -0.5373792494352907	 1.2956253555856645	 -10.464004486185312	 0.007840148592706124	 -0.004181093211505249	 -0.1428152924725913
1718170347	 -0.5811409785440191	 1.1396966157924384	 -10.695883150780201	 -0.0649798239845236	 0.007203320197040925	 -0.23759792803781116
1718170347	 -0.37362474791985	 1.1732863123137502	 -11.123711088454723	 -0.11634410373796257	 -0.05824892983951131	 -0.36955697748474897
1718170347	 -0.38864217471182344	 1.3783423633694647	 -11.586097129291295	 -0.1824661991259132	 0.030724321493917926	 -0.4066095044415078
1718170347	 -0.19242667017774656	 1.6687236319459975	 -11.818667867803573	 -0.17502319651135972	 0.06589501929312933	 -0.37170867848747846
1718170347	 -0.04182004785588942	 1.8383575834214687	 -11.693235315495729	 -0.14161036188214177	 0.2095014453794207	 -0.4011510228922541
1718170347	 0.4432105810496956	 1.7711200304508208	 -11.25094513722658	 -0.12297101392597487	 0.10177311717629842	 -0.5238735139542542
1718170347	 0.41212037319391964	 1.7118904273688793	 -10.64202062768936	 -0.13897089460338583	 0.06539949239923884	 -0.6249066218874036
1718170347	 0.08545762086198665	 1.8728000973798333	 -9.84238182311654	 -0.137304221814187	 0.1335921164721312	 -0.6515107356499409
1718170347	 0.01050670904352446	 2.086588394010812	 -9.612522097128629	 -0.04448068244823508	 0.1570102573330931	 -0.5956215038554835
1718170347	 -0.07172072170011233	 1.9797715487152336	 -9.59718774987459	 0.01948295208512533	 0.1845294998252089	 -0.6251332568961694
1718170347	 -0.12401025528660975	 1.8259592896193264	 -9.504357490485907	 0.10663917854106394	 0.15144591513050878	 -0.7001869953690004
1718170347	 -0.39845414181519295	 1.3110429972089825	 -9.273744900304079	 0.11664444172989626	 0.2501216594457474	 -0.7238045737060956
1718170347	 -0.21917992654144763	 1.1856946160532533	 -9.196293411833047	 0.1566848024031286	 0.29669129216352697	 -0.5782744048840072
1718170347	 0.29529507010849193	 1.04079894612357	 -9.515177575185895	 0.16410461887144157	 0.2537471205062131	 -0.5078942810976698
1718170347	 1.0130352523420005	 1.001046123862639	 -9.967573552405833	 0.19804755571563978	 0.08883414902014844	 -0.5480614082387898
1718170347	 1.3984006704054772	 0.7365468269743025	 -10.283540367007255	 0.17163026270357154	 -0.15050688453014685	 -0.5877057235684138
1718170347	 0.905114464392513	 0.5817316379135474	 -10.352397045612335	 0.06415434391513991	 -0.15315348408719714	 -0.5413625261223182
1718170347	 0.20519197066137565	 0.5184186745081096	 -10.237077891039847	 0.015863547635544917	 -0.017920375605034965	 -0.4930223573328266
1718170347	 -0.020268869630328843	 0.4732365206748247	 -10.316555332380533	 -0.04091176778785228	 0.0506188568031366	 -0.43867336475481655
1718170347	 0.02131717539015226	 0.5525236636077985	 -10.360620099556446	 -0.1084767430484618	 0.12930198866023052	 -0.41574727619476043
1718170348	 0.24319009474208578	 0.80410659763664	 -10.206612610149383	 -0.1218058643043084	 0.1841281281594203	 -0.487128715261454
1718170348	 0.44794148202911016	 1.0635157317791133	 -9.945569810390472	 -0.10842971328808669	 0.2285114887145698	 -0.46886788571997146
1718170348	 0.644449850296229	 1.3993553407818078	 -9.944701210862398	 -0.031426934129697284	 0.3005081013483149	 -0.5225306149745818
1718170348	 1.0026954985048622	 1.5960481257051229	 -10.152337414604425	 0.066724348462526	 0.16157353392667342	 -0.6603012311970472
1718170348	 1.018197895802185	 1.9474490956507622	 -10.207482378721236	 0.04907780615479464	 0.07511505775693018	 -0.555680845275561
1718170348	 0.9904201004300266	 1.8304729676514864	 -9.95726843149066	 0.12165561208455748	 -0.09677811720288101	 -0.3570821983065998
1718170348	 0.624558351194486	 1.4732694489069282	 -9.95745430945158	 0.06374374273169853	 -0.09532160111320305	 -0.2942341931627926
1718170348	 0.2945292185688391	 1.2498477931424974	 -10.004289710384606	 0.04795486763640592	 -0.058529697758622115	 -0.4173181750532573
1718170348	 0.21260865839235482	 1.111393116045743	 -10.104168134719133	 -0.026328401688308453	 0.0024205804042866457	 -0.4761242673211376
1718170348	 0.33722160141300406	 1.2141525757092981	 -10.191541297745704	 -0.047071272398609657	 0.0270440638134292	 -0.40364134482758723
1718170348	 0.6226758253835142	 1.392971192702651	 -10.2132200455904	 -0.06749449303788489	 -0.011264695995168706	 -0.3974207331533801
1718170348	 0.6276820361729711	 1.5315237772159278	 -10.304259329909085	 -0.08238646125112006	 -0.047903689170395156	 -0.546633454551803
1718170348	 0.11010058880713768	 1.5574343174114822	 -10.195957945144176	 -0.06205308484793217	 0.011728506304952022	 -0.5898070242475135
1718170348	 -0.23510694245900957	 1.4949232084408401	 -9.850015678995847	 -0.022231615210358328	 0.2316846285086424	 -0.5551503768759308
1718170348	 0.03648248165363911	 1.5665516898468135	 -9.570663900086283	 -0.03805954722751264	 0.1992241569299936	 -0.523124533187183
1718170348	 0.4192606368700042	 1.2781085497260094	 -9.331636532780527	 0.08130191386432051	 0.06788979768981512	 -0.5562814213908875
1718170348	 0.7436974293813109	 0.8231573350653052	 -9.446485731753706	 0.03408041421309516	 0.07086861410928522	 -0.44720396906904475
1718170348	 1.318364133877307	 0.6673379739306867	 -9.527711478066443	 0.05667251324413094	 -0.10963545947162007	 -0.47961154361054187
1718170348	 1.467730081088841	 0.6349087725561112	 -9.566675707232951	 0.0809517165033535	 -0.2656058772347133	 -0.5164883019353554
1718170349	 1.0615735116701572	 0.6476993536114692	 -9.556483983564377	 0.13849627768524167	 -0.33249150090718965	 -0.565237632136824
1718170349	 0.30319906643237915	 0.5566755591228604	 -9.939894102841615	 0.13321331509658105	 -0.22675401877695608	 -0.5948836750754771
1718170349	 -0.05771481917139608	 0.4608763303933665	 -10.584675523179769	 0.08307335707527876	 -0.12484309133662448	 -0.5303548158096664
1718170349	 -0.029966731667623387	 0.3046023938916623	 -11.13660096516609	 -0.01496810757268161	 -0.05984938562491885	 -0.31219668208315904
1718170349	 0.06307290300528984	 0.2826697078185156	 -11.478567313420772	 -0.10312031050322862	 0.030936473483661762	 -0.3454789718846927
1718170349	 -0.04072010552366264	 0.5695204276487231	 -11.260137328463792	 -0.14892663131832107	 0.13316235717359806	 -0.40471553085327067
1718170349	 -0.5733284416295588	 1.0730538138445467	 -10.738819790709018	 -0.038437595427816995	 0.3341412959129801	 -0.42862405953945704
1718170349	 -0.18336714714318514	 1.3651507272325456	 -10.59407463516593	 0.007685645718184096	 0.34108818490596543	 -0.39150072578721573
1718170349	 0.608741188859567	 1.7242583260327577	 -11.09044477866888	 0.037687744972202356	 0.11836314602889253	 -0.4152296575473899
1718170349	 0.9389933531187474	 1.9667428480550646	 -11.399055969810485	 0.1051092923633543	 -0.21814318673488925	 -0.28600728908137435
1718170349	 0.07650363142797723	 1.5443401502996683	 -11.265804852706193	 0.051749393653010456	 -0.23478784367934363	 -0.1865872911099995
1718170349	 -0.937507133148983	 1.3332047062650323	 -11.126701502442359	 -0.0033373684080599195	 -0.03971554240521594	 -0.11213030878080629
1718170349	 -1.266911010015756	 1.087792898619175	 -10.987255622351169	 -0.11529855501637587	 0.11023368867623592	 -0.13216829068483396
1718170349	 -0.8404632746532559	 1.3805327130205929	 -10.860351243925093	 -0.12595279727334688	 0.13206493506740366	 -0.14221290207877219
1718170349	 -0.1689260954670608	 1.6745127367414534	 -10.853484280765056	 -0.09090811068618286	 0.08216810700886878	 -0.10520260287004796
1718170349	 0.3085478070491925	 1.9920815797120333	 -11.010986042028664	 -0.02687797826875993	 -0.022414147855353436	 -0.17179614434996984
1718170349	 -0.09598011998804286	 2.1202403421133758	 -11.129045435220002	 0.08377315258596751	 0.0966785898795177	 -0.29526533584735765
1718170349	 -0.44488114461041983	 2.1278880803875624	 -10.896544839334487	 0.12900086836472663	 0.22837425269464667	 -0.2729191672594231
1718170349	 -0.5124449703933671	 1.4218006890848278	 -10.249189184594155	 0.10182025512759281	 0.3251973689975716	 -0.19914719157449032
1718170350	 0.0882107006961014	 1.0571046956930308	 -10.260001670509576	 0.07770887679012649	 0.2039027983330448	 -0.08094931133599402
1718170350	 0.3075387396045029	 0.6428367160111665	 -10.350555801659821	 -0.011373720192591126	 0.08393060366304003	 -0.176124813096271
1718170350	 0.1201957384997513	 0.5603834737300872	 -10.228940177291632	 -0.03314404677382331	 0.034412622753136536	 -0.22071791423202106
1718170350	 -0.2813391898671165	 0.6765364487782121	 -10.000003995889426	 -0.036232456433339354	 0.10940155902650545	 -0.2027278449496155
1718170350	 -0.1828855376387015	 0.9992508379437028	 -9.963032986366748	 0.0376227305520908	 0.1414848604157718	 -0.1751700532007208
1718170350	 0.23395715136937795	 1.0114704872433096	 -10.023128850889206	 0.1085906015074411	 0.07898498036070839	 -0.1265608552068608
1718170350	 0.5913503839997575	 0.8477978553250431	 -10.11029041699171	 0.15901508500170475	 -0.05647543516227587	 -0.05436108499383471
1718170350	 0.39410219368338584	 0.3439352737074718	 -10.076820693588257	 0.07827791109129235	 -0.07223706279066561	 -0.06053522450701991
1718170350	 0.12277150727189146	 0.22062961389310656	 -9.976354240232705	 0.04651847921890407	 0.005184224330799985	 -0.04577192858632761
1718170350	 0.107536419141246	 0.07618273804369383	 -9.928649070727825	 -0.07495682437628744	 0.07535892008899737	 -0.06155803232961086
1718170350	 0.28388783317031335	 0.3995892467923462	 -10.029427658772468	 -0.06426977530363803	 0.11937949984702924	 -0.03450906455470563
1718170350	 0.5696003610171377	 0.6235531196746975	 -9.99197617225647	 -0.06946594796908649	 0.15541643864446475	 -0.011157194792994676
1718170350	 0.8065371857844292	 0.9027292497564107	 -10.00567970343828	 -0.01961884612153043	 0.12271842141895926	 0.04876494298335918
1718170350	 0.8493820557765662	 0.9451525333356112	 -9.813722714865207	 0.013584339473249446	 0.11272343636745898	 0.11209864213096957
1718170350	 0.9306297216601669	 0.8237213986888527	 -9.846825358521938	 0.09406060265942894	 0.1318553110001008	 0.05256173268689028
1718170350	 1.1676711758457123	 0.9228174404740332	 -9.84962054219842	 0.08708887968927863	 0.020469542997485806	 -0.1232227325832578
1718170350	 0.9750780082609504	 1.206676686870679	 -9.956272406190633	 0.12264351169092239	 -0.08430800687901789	 -0.05164205161632345
1718170350	 0.5732150078503415	 1.141657759797573	 -10.002163219749926	 0.09247792763548689	 -0.09127878942040826	 0.16568249188304307
1718170350	 0.2807954931781627	 0.9386625137291849	 -10.250632953661679	 0.0389182918433871	 -0.018338922579259943	 0.19410391348393682
1718170351	 0.45595524060409515	 0.7741670941859483	 -10.490441242212057	 -0.0473276224594758	 -0.010216716098790006	 0.029969646139422122
1718170351	 0.7215785365536809	 0.9080486181482672	 -10.59090301939249	 -0.06758942224717861	 0.0052136860705076365	 0.008340807793330157
1718170351	 0.9700562345761805	 1.028016621439904	 -10.520979003816842	 -0.07650186560507533	 -0.07276481809493525	 0.059149082449147294
1718170351	 0.789902715717256	 1.0925290602955966	 -10.293473732000589	 -0.0782264787927402	 -0.03355662660273082	 0.055455028345855195
1718170351	 0.6135886288907378	 1.1061486395210027	 -10.186859277409315	 -0.07319231370654182	 0.020551628696303694	 -0.013272566533385233
1718170351	 0.5024251692255959	 1.3249560794882476	 -10.118508794760704	 -0.049479086274420735	 0.056683436365789465	 -0.06164316609952013
1718170351	 0.38814818064980205	 1.542107422811538	 -10.003287839865683	 -0.0010194864133837795	 0.16335943310892376	 -0.08819430792350008
1718170351	 0.6098176955172792	 1.4574638308793306	 -10.029428827816247	 0.024858856915235122	 0.18997458234522807	 -0.12369602624323532
1718170351	 1.053350676921755	 1.5220910552211104	 -10.084230093061924	 -0.0010324539793127288	 0.23658860662942796	 -0.15857255085231764
1718170351	 1.6180430998921393	 1.3925290018931031	 -10.204579643017054	 0.06107845943512564	 0.04231654781216625	 -0.17514685040972347
1718170351	 1.5420998240269719	 0.9805159615311771	 -10.26540382181406	 0.045350300251497624	 -0.05395225647699392	 -0.21293194640333582
1718170351	 1.0935261815741657	 0.7456259132258594	 -9.930586176270246	 0.04550068979049224	 -0.15298645395257876	 -0.27064178169799863
1718170351	 0.4689066017117351	 0.7279434684757142	 -9.785774385231733	 0.02412291523453234	 -0.14229176493655216	 -0.21157731287011022
1718170351	 0.14289987473627552	 0.8729600613713264	 -9.841274738657473	 0.080737165588034	 0.021193242459552626	 -0.06426810666676752
1718170351	 0.4721451087089255	 0.6071503760041669	 -9.794584883674979	 0.061610205319841196	 -0.04000523191397851	 -0.004700764365450278
1718170351	 0.8000092453204095	 0.395496862912178	 -9.569397825673223	 0.0414332147292898	 -0.10636037886444627	 -0.015594751457771857
1718170351	 0.8165139515280723	 0.2034623886561021	 -9.32999168818295	 -0.026785716381745497	 -0.1472640198497846	 -0.04992127504510397
1718170351	 0.6325565103415399	 0.27856303968466817	 -9.281433701241015	 -0.061870741537045804	 -0.1694177084699337	 -0.028757893279273857
1718170351	 0.3280032162886113	 0.39093430423699316	 -9.531324407866597	 -0.09327785800316261	 -0.10209699085436567	 -0.021320799553389017
1718170352	 0.11592797065321356	 0.6543621725015342	 -9.994959571981429	 -0.08969235268142647	 -0.07404898605019306	 -0.03131738250154335
1718170352	 0.07301769814151339	 0.8227534304395318	 -10.578978772842884	 -0.028154056872206616	 0.06465751491359675	 -0.060022736605936995
1718170352	 0.7609817416593432	 1.146415183457732	 -11.380967355412244	 0.02468974618601509	 -0.0030709820789841906	 -0.03894911793300476
1718170352	 1.1634623990442603	 1.0609281995039432	 -12.023801148813963	 0.05352599257739152	 -0.09428797003749445	 -0.07302223758142663
1718170352	 1.0739506165537982	 1.008221860710904	 -12.327401818317174	 0.060247349276749955	 -0.10153683653095955	 -0.04886059207838505
1718170352	 0.6522055059242993	 0.7855599372725933	 -12.137537418109178	 0.00830398699051656	 -0.10056392552810475	 -0.10507372251804493
1718170352	 0.33602230862583965	 0.8977059417016804	 -11.829870814341305	 -0.0603206735917004	 -0.08341675505308765	 -0.11429867118510562
1718170352	 0.14982867848561143	 1.1935231177218257	 -11.287415796011686	 -0.07669139112852649	 -0.08876219373644585	 -0.15026801562512354
1718170352	 0.0797656197654549	 1.484677124236524	 -10.953476102346182	 -0.11702607271410462	 -0.04734723414419071	 -0.12493151660719352
1718170352	 0.14326121886195614	 1.5608865036919712	 -10.771465338248014	 -0.11113303817635568	 -0.018955238392747726	 -0.04268316106454008
1718170352	 0.2718170725557953	 1.5444374731943011	 -10.732321076339483	 -0.1407299541152752	 -0.040429810531953596	 0.06073752072013585
1718170352	 0.26513722946569324	 1.5661632750511167	 -10.676516771531105	 -0.14890537596387088	 -0.019639204739707327	 0.018313659999607018
1718170352	 0.08074762567328289	 1.755257859930396	 -10.61016886087656	 -0.12207001659493062	 0.05488703018080094	 -0.10526864094270351
1718170352	 0.04562619410662446	 1.9155220716446637	 -10.356932935476303	 -0.06701710476773139	 0.19585149643600364	 -0.1888610481144387
1718170352	 0.3206635941155255	 1.95850810367316	 -10.147407556986808	 -0.0063135903260617765	 0.29871725867329113	 -0.2353943120385819
1718170352	 0.7284695381764322	 1.8780011731542645	 -9.895658655273914	 0.0420074172274461	 0.2612422544991049	 -0.2801490004734725
1718170352	 1.122723488355428	 1.7466548667579889	 -9.753173261356354	 0.031825759147693464	 0.235441300187065	 -0.3112118118225341
1718170352	 1.6047560405567287	 1.5276565803937614	 -9.941874463003874	 0.03709998948081107	 -0.038704290205042416	 -0.23784764932427654
1718170352	 1.3850881843678653	 1.3586081737212836	 -10.338252784925698	 0.0338969182527995	 -0.1168168814104789	 -0.16873815298352954
1718170352	 0.6572721416641026	 1.0868190851509572	 -10.445032074689864	 -0.038918087945116135	 -0.019612063383129135	 -0.2168713608668083
1718170353	 0.08854049890604801	 0.9569117985818535	 -10.140078821533917	 0.0771086918265851	 0.034395526507294986	 -0.2932129707532881
1718170353	 -0.04803471655307803	 0.535024429937452	 -9.898923794549702	 0.045760027585206316	 0.12870129603160635	 -0.30426089479840007
1718170353	 0.1757978078674525	 0.5570314233558252	 -9.787740132346748	 0.07664880551822044	 0.07080498120398913	 -0.23560310386804412
1718170353	 0.524796064052917	 0.49304056068882346	 -9.877245046705006	 0.09337520486338342	 0.08870025027396629	 -0.2803078247429821
1718170353	 0.9041396280109881	 0.5145974722521379	 -9.98209190710187	 0.11262234443695525	 -0.0446497848550767	 -0.3622886449481911
1718170353	 0.8297498651981353	 0.47245717033278195	 -10.004230089151859	 0.11921703869815599	 -0.10451909425390071	 -0.36298905631488193
1718170353	 0.4300069622140377	 0.517471274122782	 -9.8989296397686	 0.11924668301003993	 -0.07777356663748018	 -0.29947359642287363
1718170353	 -0.03260281350896693	 0.41500378314312547	 -9.921120428788662	 0.08670248830462177	 0.06350510269208141	 -0.27660318457435695
1718170353	 0.019294766184454783	 0.40493002329841254	 -10.055773229384421	 0.011989942379321836	 0.1609605075332508	 -0.22442029071371966
1718170353	 0.2714903430857695	 0.34787173637356605	 -10.175318477219342	 -0.03028698258925108	 0.20878710235127737	 -0.20529358427806826
1718170353	 0.5805393593890592	 0.6559418429084122	 -10.144338817065954	 -0.054401639943809574	 0.206333299012392	 -0.16026610492376947
1718170353	 1.0545919091545044	 0.897612564329803	 -10.242983900213241	 -0.05659188188093958	 0.026392883476201997	 -0.20339182094364266
1718170353	 0.9208963362183421	 1.288222385852784	 -10.133073911207914	 -0.0407995862881219	 0.013465628027361863	 -0.13016794045580501
1718170353	 0.9949545289892703	 1.4722165788531303	 -10.067234534597397	 0.035412747933380576	 -0.01233888514174407	 -0.11862770611605668
1718170353	 1.0198519466195255	 1.3123153552323579	 -10.012925436782837	 0.02865448148578932	 -0.04795086041120319	 -0.23716639607267745
1718170353	 1.1485864630822091	 1.4067350757695734	 -10.186128625047207	 0.08913502796667855	 -0.12132086938029134	 -0.31612604311351644
1718170353	 0.9347070541016756	 1.246302960142493	 -10.30842930907011	 0.07629706851724823	 -0.18725697625561355	 -0.24990291405171097
1718170353	 0.4446756121009588	 1.1461583591524511	 -10.439342338615655	 0.017701815383918126	 -0.10133868902347924	 -0.1681859298867448
1718170353	 0.006647887324058683	 1.0309143887080252	 -10.410622440087794	 -0.03881474897244265	 0.08217710349992621	 -0.2671954015760839
1718170354	 0.03291458287187852	 1.1299402148012072	 -10.371589237338304	 -0.06854225551212773	 0.14774235687107648	 -0.33488358548781244
1718170354	 0.09221157036791555	 0.8996658435977994	 -10.12798973981142	 -0.10264638434249221	 0.2529464411244808	 -0.36567099269064623
1718170354	 0.4956689364310354	 0.7791900369144976	 -10.16784478033781	 -0.18354765891032393	 0.19711726361260468	 -0.295811184002283
1718170354	 1.0441524212699382	 0.6900673268068581	 -10.18711062182188	 -0.1285562619431163	 -0.003064530935347529	 -0.22776006116824715
1718170354	 1.325328419931978	 0.7042902787528932	 -10.152686958694458	 -0.10060621985516657	 -0.02388968682147405	 -0.39613788845628894
1718170354	 1.3662497745156288	 0.8813435665741562	 -9.984578463220595	 0.00653935460598674	 -0.21128105284359572	 -0.5942738777648762
1718170354	 0.7138681813720613	 0.9164038471046835	 -9.817041630154847	 0.08942200021889139	 -0.1817242424462171	 -0.5679167056144164
1718170354	 0.22293381744856014	 0.7951631935287267	 -9.710866736024618	 0.142078695404589	 -0.13760922866040673	 -0.46263189429046914
1718170354	 -0.11669743892205879	 0.41287857115007937	 -9.719023738995194	 0.10977107262775394	 -0.034533455365220476	 -0.38623955118522335
1718170354	 -0.019362351527949795	 0.25411179491933433	 -9.879038359862566	 0.058273414276783224	 0.037172697939759435	 -0.46567029477814054
1718170354	 0.32038576355483384	 0.1992686998259276	 -10.02433179693818	 0.015878683961271733	 0.04705094082816259	 -0.4858887474579131
1718170354	 0.5197892322089522	 0.1580483988283202	 -10.19650973380804	 -0.03915125602093098	 0.03948900310380187	 -0.4612803733267676
1718170354	 0.4683267925297841	 0.3732717332310974	 -10.242393533104657	 -0.06062193120644801	 0.04750336612428581	 -0.4123469188254336
1718170354	 0.2919799907437525	 0.5636867165265604	 -10.253194328582286	 -0.01919553042447853	 0.10614838291929755	 -0.4613283768054162
1718170354	 0.4243378670690581	 0.7430847773756831	 -10.491946970599889	 -0.03798204507860213	 0.053039129279422205	 -0.5642621828085552
1718170354	 0.4750924142071977	 1.0308836282435805	 -10.602263786840439	 -0.038448876411747004	 -0.12248744212866533	 -0.4748972491383972
1718170354	 0.2985358238616958	 1.1550229989357292	 -10.665101059025526	 -0.08198699540998658	 -0.15851064900173012	 -0.3107832426241131
1718170354	 0.12674495921381748	 1.2375811628960072	 -10.683571950739621	 -0.09263381410541899	 -0.17477866838902	 -0.3623654771456399
1718170354	 -0.09636173971677199	 1.4447441961683332	 -10.68299444311261	 -0.08224609601691607	 -0.10550899123108316	 -0.4722878506128239
1718170355	 -0.03338456587065011	 1.594666023696959	 -10.740745205813646	 -0.006995392854635688	 -0.1763228357680752	 -0.5331400495462121
1718170355	 -0.12968633729480206	 1.4955378332078455	 -10.799262861233949	 0.012471458549164975	 -0.18904249260845715	 -0.5067957604375257
1718170355	 -0.6051518591307103	 1.4597484346851706	 -10.658762503653763	 0.032438209216411426	 -0.07691470550830803	 -0.4311548282338457
1718170355	 -0.7786664514318108	 1.315395347199589	 -10.42055229794979	 0.010953985198848621	 0.058171972806386425	 -0.4862316294482608
1718170355	 -1.006430812575668	 1.461545547235012	 -10.35443819605112	 0.006896047583300025	 0.15674530609414383	 -0.5360413971062853
1718170355	 -0.9414894807834178	 1.3494681510627269	 -10.4524999263525	 -0.02390555551650064	 0.255755044099592	 -0.5646647196073207
1718170355	 -0.5114911037346348	 1.4388991234019397	 -10.765720657116175	 -0.06840734143577999	 0.27548976685686527	 -0.5081376607317893
1718170355	 0.46751343032028525	 1.4905597525343297	 -11.393828006029128	 -0.04933398560690345	 0.037188248303811976	 -0.42152167522832473
1718170355	 0.7819110593762248	 1.4641579216904936	 -11.580609637790918	 -0.08463833040035018	 -0.07907494527128263	 -0.3842828934428285
1718170355	 0.3704557259622961	 1.4385957565411924	 -11.71324466882348	 -0.08162413971146329	 -0.22049149560509387	 -0.5058304644109128
1718170355	 -0.6562607726644725	 1.3362341370888053	 -11.70723812188506	 -0.054495079447368526	 -0.18734883866846447	 -0.4845852299728602
1718170355	 -1.4101806861788033	 1.1761926282145083	 -11.60651097176671	 -0.013586628127311233	 -0.09776252973269359	 -0.3134741005895292
1718170355	 -1.4960343845531343	 1.0198020430631936	 -11.046253754764795	 -0.01911094385094949	 0.18333816800107558	 -0.3090187319543675
1718170355	 -0.7539259779289365	 1.0001560431551189	 -10.383718066549301	 0.03344435979862177	 0.11130675950321292	 -0.3989519176221212
1718170355	 -0.00240578934996156	 0.9306314021605998	 -9.832352596533298	 0.12216459210314207	 -0.05757797553119027	 -0.4012233277158498
1718170355	 -0.04009110517143272	 0.801171128706634	 -9.659508889231086	 0.17637082260196707	 -0.182285886475358	 -0.36378500858567936
1718170355	 -0.8403712124556303	 0.6448083083450794	 -9.480694290825724	 0.19658449823653432	 -0.022868726566889343	 -0.2864553326452665
1718170355	 -1.391008952718973	 0.32312695202175523	 -9.512395835512876	 0.12571540142930152	 0.21962997963721007	 -0.25549951379299884
1718170355	 -1.256925330313295	 0.09467504700515418	 -9.612932431495189	 0.0023116846835808764	 0.38021771119687703	 -0.21922815856298755
1718170356	 -0.675360171540454	 0.23605242488188669	 -9.626309214940667	 -0.0825749131877568	 0.45379196381562825	 -0.1278772723784438
1718170356	 0.11388552330648526	 0.6343778074845672	 -9.538588845911622	 -0.05554022037241331	 0.43399931730464575	 -0.12654286222474595
1718170356	 0.7062023229192942	 0.9026802229829132	 -9.341253671431542	 0.040861130276437944	 0.3813487557118337	 -0.14481281309296207
1718170356	 1.2541796848669649	 1.078287111388147	 -9.778758953511714	 0.11508516923403328	 0.17424821663414666	 -0.23468411355488503
1718170356	 1.0879188630864023	 1.115832925124094	 -10.344891784548759	 0.10594454290498721	 -0.0034622290512926032	 -0.1418006114525143
1718170356	 0.561954412841238	 1.1546416714679448	 -10.74778752554059	 0.03280188258861316	 0.09375378153471658	 0.01591811851105362
1718170356	 0.4783091477639973	 0.9683407358951867	 -11.130640010935068	 -0.00298080416753761	 0.014974687453109248	 0.10812236785353473
1718170356	 0.5319589414196089	 0.6458825865130872	 -11.309199757796526	 -0.12102822126600525	 0.037411000923051094	 -0.028719271201683903
1718170356	 0.5965994271017611	 0.7249663523610681	 -10.99378239377141	 -0.16923741246413535	 0.006644148434435407	 -0.10068306869737217
1718170356	 0.5269243082532659	 0.941180780160427	 -10.436153187185525	 -0.14613720310305847	 0.025409055593472483	 -0.06691280872154115
1718170356	 0.3257392899446189	 1.1221664389945567	 -10.0425747251153	 -0.09471571532045321	 0.11405901997651212	 -0.11150574757091228
1718170356	 0.3042214682826772	 1.246063744559139	 -9.925831675219536	 -0.05732155473010767	 0.15344513351607444	 -0.18572948692288496
1718170356	 0.31381997529845684	 1.373650260030478	 -9.77693933686912	 0.007272580070437099	 0.2030323108412388	 -0.2928047747372062
1718170356	 0.7321529759295284	 1.3583235115610062	 -9.74540145831108	 0.016492109828857862	 0.3468870517320448	 -0.39702026030445947
1718170356	 1.634233771714568	 1.2949155998811126	 -9.895881942635773	 0.07537141197898553	 0.015349041557698421	 -0.34713206255233214
1718170356	 1.4793983070507646	 0.6500726586140692	 -9.888402400535345	 0.0431869395966206	 -0.16532840797136023	 -0.2586429593409171
1718170356	 0.8094126681555062	 0.24656883219387382	 -9.808349789655209	 -0.07940367921833928	 -0.10162646022401911	 -0.2655308260262435
1718170356	 0.24981033486574886	 0.375516333820112	 -9.928958867329358	 -0.09432425560734678	 0.020979165919802287	 -0.26166479829555955
1718170356	 0.25412286430262027	 0.5826408251803368	 -10.133801056438683	 -0.11098528267012672	 0.14372238178462912	 -0.1431829917953472
1718170356	 0.8375892535869032	 0.727320587337017	 -10.197729046469926	 -0.09396724221846485	 0.14203784917136994	 -0.05773254706533415
1718170357	 1.418222392206639	 0.8599821410503238	 -9.949709394413233	 -0.10157835687682956	 0.04584331378710934	 -0.015403863144856622
1718170357	 1.6638989882685242	 1.0705969222117215	 -9.864463891065121	 -0.08831283523676542	 -0.13125957018662848	 -0.0010505800544634994
1718170357	 1.2000688130382449	 1.2280226225644348	 -10.021472315853833	 -0.04240254294824059	 -0.20973295730193264	 0.06656120903981265
1718170357	 0.21281064723785964	 1.6502413420550524	 -9.819846166181565	 0.022102734858355306	 -0.10514120036216482	 0.23961249288915842
1718170357	 -0.37567576216552406	 1.5099246704787015	 -9.523604627269506	 0.11530936578592592	 0.23486990233043167	 0.07446097707082831
1718170357	 0.3312512217665091	 1.7387603141158818	 -9.467085452190041	 0.1177739382824693	 0.09566746251502029	 -0.10503704579640749
1718170357	 1.0134848227404056	 2.0663319340541957	 -9.761566995692252	 0.23584380369631686	 0.007650429573957002	 0.019353125062578573
1718170357	 1.4268163252897559	 1.6945634449929	 -9.824285025411843	 0.28010755502900814	 -0.018034123792500373	 0.1304891426504038
1718170357	 1.48322984803766	 0.980171751203388	 -9.819123697125912	 0.09673155349569666	 -0.09927562967315733	 0.0431499258186577
1718170357	 1.5234567906163632	 0.9513895280290394	 -9.832543150669336	 0.053216782930076506	 -0.26699218574015404	 -0.0016034996953097173
1718170357	 1.2980213108114897	 0.9947391326729208	 -10.007319871860743	 0.012471629157922309	 -0.3427367149102381	 0.014122287610472444
1718170357	 0.9251384307675063	 1.1291307981144636	 -10.24856257712841	 0.028559065417358823	 -0.3555643962223364	 -0.000645126457122289
1718170357	 0.3902425956457853	 0.9106098469384014	 -10.49955510751605	 -0.08340915672160253	 -0.30476313369047536	 -0.06498451780594486
1718170357	 -0.13408826204817742	 1.0697668280631303	 -10.63381861653328	 -0.09927697789845917	 -0.2198600767553929	 -0.11351194010958258
1718170357	 -0.5984473930560053	 1.2279726459428668	 -10.484095672577618	 -0.12934567282448622	 -0.01790042686399459	 -0.12444340911365243
1718170357	 -0.5436650517065078	 1.4387731589347124	 -10.332046331501006	 -0.08797417269226981	 0.08621470538383853	 -0.15469380652742853
1718170357	 -0.3522065507074818	 1.145930980137363	 -10.15068789383173	 -0.059110824475612625	 0.12307779004093024	 -0.2190154885051879
1718170357	 0.07365067141596228	 0.9200037712927908	 -10.040656324273348	 -0.06168178193532628	 0.04031147879458081	 -0.2556421926483999
1718170357	 0.2606205922914669	 0.865653172424063	 -10.205285745459795	 -0.01257698110587286	 -0.09047604608883113	 -0.26415660161424903
1718170358	 0.20025827711885794	 0.926134017676115	 -10.633895773422717	 -0.0023918921256221473	 -0.05403250084958937	 -0.2769740464009073
1718170358	 0.2921601330836303	 1.0608007737319916	 -11.078908654654025	 0.06019519709246564	 -0.03604445806632577	 -0.25175457666812945
1718170358	 0.32727475588358934	 1.0244652125686406	 -11.204592551374434	 0.05468322345600422	 -0.029836531777404793	 -0.18643377651791324
1718170358	 0.09062836543023586	 1.024205757914856	 -11.009349380737543	 0.04292929540591225	 0.06981094800473865	 -0.19614807271289758
1718170358	 0.13630549057307653	 1.0613294737812131	 -10.821282969862223	 0.06355161230380613	 0.15064430364239495	 -0.12072784998455795
1718170358	 0.32058983475957065	 0.9211505301751196	 -10.794686054837703	 0.0439339229928742	 0.15402257341943087	 -0.03173913567204943
1718170358	 0.2947261659130454	 0.7725173542175442	 -10.594560957378148	 0.028839560778576818	 0.13299355437237909	 0.057578033787839114
1718170358	 0.31268311675563454	 1.0497699688907711	 -10.665575690799951	 0.01918544578244446	 0.21825963345355298	 -0.06049778628775828
1718170358	 0.5567459574779495	 1.2688250269435346	 -10.733450372630356	 0.04941713032837356	 0.09170185752670257	 -0.17629189316515986
1718170358	 0.3116047834670171	 1.2768987355448305	 -10.87572533866763	 0.08718122480007713	 0.11200950945823598	 -0.08386131154042754
1718170358	 0.24246585385445504	 1.1071238412287085	 -10.946576405960322	 0.056512931638186346	 0.02800580618446247	 0.1038859693166264
1718170358	 0.11956987081952393	 1.1220721848398447	 -10.981403389191627	 0.011055532779570105	 0.008335428415987658	 0.1497710031866875
1718170358	 0.2955496111251414	 1.1863834751002489	 -10.958276196104288	 0.020628055177805162	 -0.016664630652629957	 0.11617975340919107
1718170358	 0.5073917786570266	 0.9844774855732917	 -10.767082593119143	 -0.013923653243855362	 -0.07611165424872987	 0.05797348824258066
1718170358	 0.40226683197114615	 0.9949590590339153	 -10.707434472364186	 -0.044015415722230625	 -0.14221719642602995	 0.013482241575255835
1718170358	 0.17465366106731817	 1.1922216797344385	 -10.75388642693758	 -0.01773088129050282	 -0.06743496722633242	 0.009704639115140907
1718170358	 0.005728292827686527	 1.106596894745156	 -10.818863049238919	 -0.04367010775857743	 0.0077738660501848736	 -0.024619166175344185
1718170358	 0.014055327736079926	 0.8867045090854168	 -10.782454349774122	 -0.10106296862687197	 0.08439506727952827	 -0.06931462632371035
1718170358	 0.19378709007706493	 0.8011082195382565	 -10.578570776563883	 -0.1741807554347836	 0.13570938779539304	 -0.07105605903813475
1718170358	 0.3882158025259152	 0.9141178550593554	 -10.151126285248994	 -0.20051910236528783	 0.08691392665041724	 -0.1321571969544181
1718170359	 0.5560934483859687	 1.142071528230235	 -10.334328304958342	 -0.14265821590254707	 0.059807561512237	 -0.20579747100106804
1718170359	 0.4915245666353032	 1.0540667893018574	 -10.402600461673735	 -0.10343564542105081	 0.018350806935624422	 -0.1974337969529174
1718170359	 0.3181952677732333	 0.8223953377168625	 -10.275402653259038	 -0.10006171992554305	 0.02372279400609935	 -0.27651155518810144
1718170359	 0.1996643480800092	 0.7926434657927602	 -10.013336940193176	 -0.041968510108395723	 0.01645229036907467	 -0.38044374699439754
1718170359	 0.2946703440725803	 1.0103590188700706	 -10.041888496416806	 0.001833552340782954	 0.025962310665179632	 -0.3615389983908474
1718170359	 0.5387161605948582	 1.096750038991496	 -10.131523759156465	 0.0678848999701229	 -0.0022850715379571732	 -0.3308072845443099
1718170359	 0.6373604765571653	 1.0118019842199981	 -10.20417749195695	 0.09336803929557543	 -0.10162698453385872	 -0.2463350771393318
1718170359	 0.27223851283825934	 0.81690755395554	 -10.116365937513113	 0.07515323250668078	 -0.055063019355773936	 -0.22710400807846293
1718170359	 -0.21860751521466298	 0.7569476638376712	 -10.054449871826172	 0.05316853810245404	 0.09155781380124291	 -0.18949203420046254
1718170359	 -0.2968195397294126	 0.7457022663976997	 -10.154412467312811	 0.005476803785464213	 0.2662818873879163	 -0.15135037422640218
1718170359	 0.17263647602600976	 0.9082993049737066	 -10.310420190626383	 0.026034858918343673	 0.25708312924570087	 -0.10727905292722592
1718170359	 0.6265330853335559	 1.089292197266221	 -10.079206711941957	 0.04827810049133588	 0.25908406204121825	 -0.10423699059305566
1718170359	 1.0913066788937895	 1.1239175935108214	 -9.914238268059492	 0.07836965699084558	 0.06284880409213421	 -0.22141919112606617
1718170359	 1.0119112167481332	 1.3287886433884502	 -9.802488204145432	 0.047789318885143865	 -0.13101846256181385	 -0.12098304739601479
1718170359	 0.6956849474929273	 1.3635045674607158	 -9.860556946754455	 0.06968918744746239	 -0.03225415565676253	 0.06578146043977266
1718170359	 0.7532057738956064	 1.2218421072985977	 -10.08349008834958	 0.05065575406780181	 -0.052782883248286144	 0.10370410870368761
1718170359	 0.8562211810816079	 1.1202835478574036	 -10.281668727916479	 0.004964998319410626	 -0.037823715990607715	 -0.06699573706117269
1718170359	 0.9143503486409783	 1.095799752529338	 -10.41014897735715	 -0.01203970812159809	 -0.10677206195708049	 -0.16087420446917544
1718170359	 0.814116608062759	 1.0198056232597679	 -10.350240159839391	 -0.02278730041656017	 -0.13869621450407937	 -0.12318876063460248
1718170360	 0.4724661208242178	 1.0251276950653643	 -10.207000732684135	 -0.0512645235646695	 -0.06256577664728605	 -0.16051595936828933
1718170360	 0.21903319328082724	 0.9881363734070211	 -10.070575661718845	 -0.08645035352841851	 -0.023022430493084348	 -0.2499327747454335
1718170360	 0.12495847765584475	 1.1237911175869404	 -9.804873053455353	 -0.12434786820954584	 0.13166295586799143	 -0.3272411453971257
1718170360	 0.5553833638878539	 1.2849024476498365	 -9.932808528494835	 -0.10797864037845452	 0.053835959561141525	 -0.34101651258312865
1718170360	 0.7845832011949271	 0.9794825998954474	 -10.01620109745264	 -0.05511220045096714	 -0.15355440634455178	 -0.3182183223344236
1718170360	 0.31898725840114056	 0.7707568473510443	 -9.865493818634748	 -0.08746937050764529	 -0.00626082332607268	 -0.40177693232745
1718170360	 0.35281986030023543	 0.9592365882676094	 -9.846958629512786	 -0.011692951023804863	 -0.043805396341953455	 -0.5074595866287416
1718170360	 0.35671767145637423	 1.16035982991904	 -10.015969626784324	 0.00971200754092256	 0.023563844900913653	 -0.4277192505591026
1718170360	 0.7054316308077424	 1.2835174230322242	 -10.18298740441203	 0.08956385515883014	 -0.0441473087752168	 -0.323807132329523
1718170360	 0.8152310721106827	 1.0426934546332807	 -10.307051006454229	 0.09383887785392303	 -0.14823672279317923	 -0.35369295963482406
1718170360	 0.6050197571836412	 0.8269632301542907	 -10.46557334293723	 0.08219011137737556	 -0.14301564541034933	 -0.35471834323353185
1718170360	 0.28151200741706417	 0.6558277150094509	 -10.488051716727018	 0.054416566129481626	 -0.12960980847035164	 -0.2911819442374528
1718170360	 -0.03193358161104843	 0.6316751243971288	 -10.687081420165299	 -0.001962256232356326	 -0.026147373313210317	 -0.24537126249607533
1718170360	 -0.27382189130587503	 0.9056521514657885	 -10.506632498556375	 0.01097904804141979	 0.024082757678126388	 -0.22888468080707397
1718170360	 -0.32875103898122904	 1.084472083633393	 -10.25859647988677	 0.06489947974338726	 0.11189977889894631	 -0.3590968463817311
1718170360	 -0.3138555946011096	 1.0903135762032121	 -10.02710944495797	 0.06665816058705913	 -0.07699591527679864	 -0.326214596665441
1718170360	 -0.8247936310302466	 1.021067532954365	 -9.905696065163612	 6.748107879430241e-05	 0.07188172219984339	 -0.17757963142075403
1718170360	 -0.7566743267890066	 1.0403162771731616	 -9.892413389742375	 -0.013503461559597802	 0.18853652529085574	 -0.0856510889510153
1718170360	 -0.21958732003225012	 1.0013342931542546	 -9.897722017544508	 -0.06660525938871824	 0.2315356412904093	 -0.18514771938275715
1718170360	 0.5147276745030657	 1.2630427902802823	 -9.8101185528934	 -0.031563668726321444	 0.1708653196147167	 -0.32599395376912793
1718170361	 1.0498588892832397	 1.4276492689825593	 -9.89933880509138	 0.01999738534216077	 -0.026703967739253074	 -0.38618359151281806
1718170361	 0.850864257158339	 1.4831031529180705	 -10.136895515322685	 0.03267559673807837	 -0.1266770356094155	 -0.3720589507498512
1718170361	 0.2550957279227674	 1.2419073555320501	 -10.35580013205409	 -0.003592510163611169	 -0.10102530154220417	 -0.3530261040978682
1718170361	 -0.5069425735848024	 1.0110358221530913	 -10.283414110279082	 -0.08094517511392599	 0.06427536794192719	 -0.35330443772129516
1718170361	 -0.8871453847207128	 0.8789948114909231	 -9.961084190386533	 -0.11775220855244994	 0.29097285280236795	 -0.4162564060161563
1718170361	 -0.4164748786089942	 0.7394055043410509	 -10.097914919543266	 -0.061891277005763835	 0.23960938031963439	 -0.5049992585451855
1718170361	 0.06879728570119477	 0.5718414910074323	 -10.121973840522765	 -0.10399338625471907	 0.20163656475868508	 -0.3973305185714537
1718170361	 0.8834713723830878	 0.6356089567147195	 -10.203692338788509	 -0.1200000080586393	 0.0566156006593981	 -0.38941473828438394
1718170361	 1.3352074243895709	 0.8140806599665432	 -10.513264483916759	 -0.09854649777858566	 -0.14728427651882603	 -0.4754312462264717
1718170361	 1.0540993763972073	 0.933613705907017	 -10.714138938438891	 -0.010102271952430355	 -0.19723832092890559	 -0.5564880826914776
1718170361	 0.39784576412588357	 0.8121989378731698	 -10.692376019442081	 -0.024223272715141693	 -0.12716184744110762	 -0.5409688443341771
1718170361	 -0.21176400599544867	 0.8140036492075771	 -10.61637999047637	 -0.02077038241271848	 0.04927125151847527	 -0.4213369850067277
1718170361	 -0.12580352277839554	 0.9277927446685731	 -10.874293260037899	 -0.031403874899727485	 0.12212548524700993	 -0.38973305261367563
1718170361	 0.275702389556542	 0.981390333212912	 -11.039800633102654	 -0.024813250281567514	 0.0666387736065612	 -0.4012973303046404
1718170361	 0.33079317580070344	 1.2122845898803323	 -11.024826351332663	 0.02500183537625875	 0.11354047754513846	 -0.4210827862806797
1718170361	 0.4573028192881495	 1.2037291621766983	 -11.099611250942944	 0.04069842361740172	 -0.015210267978364675	 -0.48440063961980406
1718170361	 -0.0810025685487315	 1.2725528152950107	 -10.868812782800196	 0.07015070910318391	 0.12254669746291959	 -0.42594864790836345
1718170361	 -0.4514756840372458	 1.1557612500824033	 -10.560457612246275	 0.05928631846907044	 0.19885264595792754	 -0.29663060538018676
1718170361	 -0.2694334653548896	 1.2654900373019278	 -10.356440768045186	 0.0029640145493254767	 0.18861753532226458	 -0.35843288703246073
1718170362	 -0.01728707277398789	 1.588681104068458	 -10.361809017080068	 0.05550733449414003	 0.0310997002913484	 -0.37190358858975864
1718170362	 -0.2040675697413273	 1.529123145814985	 -10.49213051047325	 0.010920344064734957	 0.1457914249250253	 -0.3398633305416107
1718170362	 -0.029745202438009436	 1.3992654705412686	 -10.634574987858533	 0.008662373051686918	 0.10964122687985577	 -0.31995097493962915
1718170362	 0.2951532504850067	 1.3140028699278832	 -10.841466510713099	 -0.04595325240585917	 0.05425536582093697	 -0.37917794652828285
1718170362	 0.6039136956378818	 1.3089661909349262	 -11.143777724927663	 -0.05732514167520087	 -0.005146901584538745	 -0.42711368101673225
1718170362	 0.625561317691952	 1.1408438861314207	 -11.447625062668322	 -0.12178002331935622	 -0.09191719074559229	 -0.4619356108234679
1718170362	 -0.215776036382094	 1.325321113408357	 -10.613065751361846	 -0.1507892461847225	 0.009108354226180263	 -0.49024980690097236
1718170362	 -0.7032301752407103	 1.3661005753032862	 -10.084918659847974	 -0.09206957349421527	 0.24207235491952372	 -0.5902484431981941
1718170362	 -0.11215880911173298	 1.500748991984874	 -10.003652581524848	 -0.044526659427741776	 0.2411849397100389	 -0.5722057265499891
1718170362	 1.0544662369482218	 1.7872312072962522	 -10.344756175470351	 0.09342561350939158	 0.0753942985196034	 -0.6890057135323028
1718170362	 1.6975338391058146	 1.448134276998043	 -10.640441249543429	 0.17863073116873787	 -0.3570188483621695	 -0.7694521534754626
1718170362	 0.8699269042205064	 0.8691879224214702	 -10.520028571224213	 0.1413738232430723	 -0.35994160107950424	 -0.5868637651897852
1718170362	 -0.1911889816089533	 0.34263500476386394	 -10.140497339206933	 -0.00569322203443868	 -0.22750411474273372	 -0.38829238233248364
1718170362	 -0.7810230975605547	 0.2956108580593951	 -9.85711761995554	 -0.06224266862803218	 -0.013257890019065374	 -0.42662951833055585
1718170362	 -0.6906130510561168	 0.5364864653140307	 -9.719095635187625	 -0.11564741247441944	 0.11547464822107896	 -0.5112358824754466
1718170362	 -0.13752093077744357	 0.9394686424802988	 -9.764850255146623	 -0.05044730345585426	 0.1140666765646461	 -0.45239084147662395
1718170362	 0.21641406029099597	 1.1661842982888222	 -9.893106632703542	 0.009237120145480195	 0.1187438948409898	 -0.40436512543284353
1718170362	 0.4612205407211557	 1.2401711793892085	 -10.146686256974935	 0.08880987264233668	 0.030047443732766063	 -0.38098716501482816
1718170362	 0.21673521853676064	 0.9570344020482152	 -10.345632958304881	 0.03589478009068491	 0.06122747162049398	 -0.3176262017555581
1718170363	 -0.009532711770571767	 0.8601657539889216	 -10.388181475698948	 0.001106484526093265	 0.05900528839503983	 -0.17119966284481933
1718170363	 -0.30759043325912205	 1.000972985561192	 -10.071521418136358	 0.021551423062006074	 0.23446032479953433	 -0.10432682234557539
1718170363	 0.18718275990858674	 1.0015207556370644	 -9.934536375200748	 0.04818371223663859	 0.11684464486484297	 -0.34950204289590725
1718170363	 0.2918877641493454	 1.4187538687348364	 -9.794502466088533	 0.05019226416958714	 -0.050301412162388356	 -0.2845339284978016
1718170363	 0.06798410158820915	 1.4874376749910414	 -9.843605811953545	 0.10096523061486606	 -0.051402758270001424	 -0.048268592174006454
1718170363	 -0.2734239232305437	 1.1734845382995902	 -10.247733725088834	 0.04679077495679706	 -0.025829002807864352	 -0.022906616275179526
1718170363	 -0.3821360807534307	 1.1603987736899406	 -10.667284832805395	 -0.021082344686691443	 0.10769144342202469	 -0.21091130621575183
1718170363	 -0.027981779811927114	 1.3446281636856496	 -10.626104096633195	 -0.025258792970748567	 0.09929072646758672	 -0.19878616679921646
1718170363	 0.28460573564870284	 1.4342749707326292	 -10.317215842115878	 0.031380509822351244	 0.06630915748739345	 -0.0652673829644141
1718170363	 0.30198943491429087	 1.1568483146667479	 -10.174183335709571	 -0.02369495981151882	 0.07830185457396785	 -0.06321408576396301
1718170363	 0.43913229876011606	 1.133304357472062	 -10.180472791242599	 -0.0339090834894352	 0.01338289318302827	 -0.20734123890595973
1718170363	 0.18766679883217438	 1.1511099171452224	 -10.04165819479227	 -0.06503695295109499	 0.05203513835440835	 -0.2732935577744178
1718170363	 0.14155895412187092	 1.2030315353013574	 -9.83507179236412	 -0.0867658216042952	 0.16266035332277795	 -0.2122154062672932
1718170363	 0.5137156844489276	 1.2890507995009421	 -9.87108535503149	 -0.06449970181306354	 0.03050119020646132	 -0.07679358161297987
