Time	Linear acceleration X	Linear acceleration Y	Linear acceleration Z	Angular velocity X	Angular velocity Y	Angular velocity Z
1718177635	 0.30883787603694945	 0.2421580117479898	 -10.333098470902442	 8.529814501011838e-05	 0.0004503717817607142	 -0.002234215564109668
1718177635	 0.31210535340029744	 0.24741145703047512	 -10.334680187135934	 -0.00018114462832150198	 0.0006411161110276579	 6.5501669359827314e-06
1718177635	 0.30757406664621084	 0.24874416693896054	 -10.344924517774581	 -3.2629883864048915e-05	 0.0008337790411009152	 -0.0010237657413492518
1718177635	 0.30917335506901145	 0.25248832190334797	 -10.339843853509425	 -0.0003714041465369766	 -0.0009610071409159223	 -0.0003671977694197237
1718177635	 0.304529145992361	 0.2537550904361531	 -10.334966602861881	 -0.0006289091974813462	 0.0006209795313059052	 0.0003686002202183812
1718177635	 0.31004308710824696	 0.25606607079226523	 -10.333294870257378	 0.0017157477740673542	 -0.0005955138336049982	 -0.0015520940543758955
1718177635	 0.3095585184616968	 0.25311931328326465	 -10.335614253115653	 -0.0019937618961857486	 -0.002107122572906604	 0.002731061815051901
1718177635	 0.31336441355068234	 0.2505159441181458	 -10.327477708411216	 0.0005237993137089765	 -0.0019850200178926983	 0.0014281858033221052
1718177635	 0.3068758917815983	 0.2482285273007117	 -10.335441234636306	 -0.0007180467466085333	 0.0007335855373536026	 0.00010497544160088516
1718177635	 0.30936664915140716	 0.25031528871320186	 -10.326922412616014	 -0.001174883163361529	 -0.001481307414653617	 0.0002613943324406187
1718177635	 0.30533231560140844	 0.24717684455700217	 -10.334216076755522	 -0.0015687588369119314	 0.0008762498285923864	 -0.0018929119648416234
1718177635	 0.3007153963904828	 0.24779716841243207	 -10.338633893197775	 0.002003588154377733	 -0.000447144194366363	 0.0018256146123034316
1718177635	 0.3068854633275419	 0.24715485192090272	 -10.341357765203714	 -0.0020131854171263758	 9.172987247293911e-05	 0.00043260204094476253
1718177636	 0.3075435984427109	 0.2444757141058333	 -10.347456666600703	 4.67187765007565e-05	 0.00033805039455266095	 0.00019152037479870432
1718177636	 0.3116439829662442	 0.2495888924011029	 -10.354258163309098	 0.000659162538416335	 -0.00032423791215970823	 0.0007930695419583004
1718177636	 0.30350720079978927	 0.25447206133278083	 -10.339079298877715	 -0.0010027520609657517	 -0.0016626637434758343	 -5.271714699188498e-05
1718177636	 0.3044731049561873	 0.25750795842995866	 -10.337524470651148	 -0.0004188724897522589	 0.0002570367871218416	 0.00010782101232080369
1718177636	 0.3092087917085737	 0.24730702854162082	 -10.341260734570026	 -2.7035051197763613e-05	 -0.0011255153348028355	 -0.0014814843952319176
1718177636	 0.31522841732427476	 0.2589271045128815	 -10.340049605214595	 -0.0016998368169629193	 0.0016074705101069176	 0.0009732259528626121
1718177636	 0.31066344749629493	 0.24800003404077142	 -10.337994426250457	 0.0003959878346732482	 6.431305248408409e-05	 -0.0003640148497907262
1718177636	 0.3089452088689431	 0.2538866261276416	 -10.326341397857666	 -0.0009931184528301617	 0.0023532713484038198	 0.001169258796004688
1718177636	 0.30895887206811457	 0.2540000233742408	 -10.328735599517822	 -3.777512929528477e-05	 0.0004570765303737395	 0.00011646508641293215
1718177636	 0.3043116490504704	 0.25319643364008515	 -10.327007752811909	 -0.0010514457118549377	 -0.0009232916824236264	 0.0009403536634728287
1718177636	 0.31141335254814473	 0.25426194397974755	 -10.332180771535635	 0.0009602031861581385	 -0.00028604502222492076	 -0.0007034728316099673
1718177636	 0.3138454020006582	 0.2499446470362134	 -10.33233976148963	 -0.002437787701865055	 -0.0016362528056399765	 -0.00022985635437628945
1718177636	 0.3079803458921611	 0.25443434140458704	 -10.337464849418401	 -0.001503297349035348	 0.0027798111868652616	 -0.0010178780487381425
1718177636	 0.3136835625024512	 0.2592089901941828	 -10.33451885909438	 -0.0009864511874292563	 0.0017156018723709153	 -0.00036591778111894627
1718177636	 0.31048308596070856	 0.25469794251052663	 -10.340005181550978	 0.00011353121233228453	 -0.000841076531610369	 -0.002353381879992031
1718177636	 0.3128758263161406	 0.25077941735992204	 -10.340943923705815	 0.0005676832150464384	 -0.0002593724658725542	 -0.0005434464985692783
1718177636	 0.3112899818968028	 0.251248660573177	 -10.328221220254898	 0.0008961537068116637	 -0.0006182416638659114	 -0.0014080888199163647
1718177636	 0.30797387961875644	 0.25376948428768664	 -10.330316146707535	 -0.0005339561263682938	 -0.0014670384368013515	 -0.0027293585882961465
1718177636	 0.3091752547651529	 0.2502280488211661	 -10.329470928055047	 0.0007881447095176742	 0.0010297982953594992	 -0.00031396803218750887
1718177637	 0.30458703192574904	 0.25432172960927707	 -10.330867935371398	 0.00042809625326061966	 -0.00024571176935764814	 -0.0010510111276575234
1718177637	 0.30488305573025715	 0.24820392258241772	 -10.333809249520302	 -0.0005048203248087025	 0.0006339306475337855	 -0.002301755305918949
1718177637	 0.301348652792722	 0.2492465452368371	 -10.32528808941245	 -0.0015134068281674783	 -0.0011127875574017236	 -0.0006748452803004042
1718177637	 0.30600254301317037	 0.2567891061034985	 -10.3165062325418	 -0.000623901791442468	 0.0008391216179263989	 -0.00020486543861068584
1718177637	 0.2988241392837837	 0.25856177833182736	 -10.320478643304108	 -0.0003571492777168535	 -0.0016232623531704095	 -0.0013048742928074935
1718177637	 0.29664588192924857	 0.2546536467110738	 -10.329244133561849	 -0.000654482045804237	 -0.0016544153562148569	 -0.0028080102657240527
1718177637	 0.30781207665316757	 0.25270486899716776	 -10.331395174115896	 0.001277312266008287	 0.0012720352279127546	 0.0011230838999365122
1718177637	 0.30690584852844477	 0.25087918793996794	 -10.332807379001379	 -0.000519081760505537	 0.002090568061884454	 0.0015720355133351646
1718177637	 0.3039248964888975	 0.25465081543317064	 -10.322897394883633	 0.0007541833588911029	 -0.00023164599082659294	 0.0003896219629059625
1718177637	 0.3145406907884404	 0.25151816169694063	 -10.342077896171809	 0.002210912904571475	 -0.0008975471850461015	 -0.0002869574929948956
1718177637	 0.31074188302736727	 0.2550073920521885	 -10.337215843093395	 0.001077215826553495	 0.00034408756488218066	 -0.0004253083540223149
1718177637	 0.31186964494828134	 0.25512656145244833	 -10.329655636972188	 0.0002047337597289065	 -0.0005609998250373704	 0.0016825570886849408
1718177637	 0.3202026620728895	 0.2542460888234898	 -10.322145699733495	 0.0008308708249779134	 -0.0008867156095500449	 -0.0002157545067872577
1718177637	 0.31254085874073206	 0.2491496424673125	 -10.332228702330589	 -0.0006150974953113692	 -0.0006498077299573625	 -0.00010112320444133225
1718177637	 0.31096783727034927	 0.24758741638557985	 -10.339322459983824	 -0.0006121893442069486	 0.00040812459317033636	 0.0011340150838991217
1718177637	 0.30670718415118753	 0.25124440452316776	 -10.330952106523513	 0.00016626379310990578	 -0.0013529241947232205	 0.0006434716041910219
1718177637	 0.31065687162503597	 0.25101645925249905	 -10.338464381849764	 0.0008256633567643727	 -0.001508521982154352	 0.0008980582961137069
1718177637	 0.3079747929342091	 0.24743787011336535	 -10.335400318104028	 -0.00026480078595212823	 0.0008831433586562184	 -0.00040722089990883703
1718177637	 0.30920174091327934	 0.24961033704793079	 -10.334531718575954	 -0.0022437340243377743	 0.0007113582201315426	 -0.003801272344600308
1718177637	 0.30846542599536475	 0.25363027674639593	 -10.329984138274192	 9.91620164642667e-05	 -0.0016678654900542204	 5.321922047668947e-05
1718177638	 0.3112374114593491	 0.2519925742756575	 -10.340634127104282	 0.0003335555950087579	 -0.00086675386479341	 0.0008762402708609352
1718177638	 0.3127863944670185	 0.25227436862541364	 -10.3294113068223	 -0.00042213843810957755	 -0.0004894224943478933	 0.00109202712439239
1718177638	 0.3070239950153977	 0.24827609276948495	 -10.330374598896503	 0.0008121449534146433	 0.0016592479272886174	 0.000675926994437505
1718177638	 0.3006007205022499	 0.2496191779415123	 -10.331390497940777	 7.637218285876046e-05	 -0.0005281933994704446	 -5.372352084790351e-05
1718177638	 0.30766474060434845	 0.2528612103363499	 -10.346441936600208	 0.001320845977266863	 -0.00124083788219586	 0.0009313192015639251
1718177638	 0.31143311669453977	 0.2512212245769799	 -10.334809950995444	 -0.0017137341486044694	 -0.0006539747708329285	 0.000460358018171989
1718177638	 0.3190977330382913	 0.25232348673045635	 -10.335779088288545	 0.0001332071597874893	 0.00109107941355135	 -0.0010957070460568506
1718177638	 0.31297691207043826	 0.24803064837474376	 -10.335312639820575	 0.00016523420762036288	 -0.00031119550984368176	 -0.0008356987797324015
1718177638	 0.3162389095410704	 0.25694610502980647	 -10.342862324547767	 -0.0008541243304686434	 0.00037872228044599326	 -0.0012656742000297758
1718177638	 0.30979601701200005	 0.25511373850349334	 -10.33545409411788	 -0.00022559755602786287	 0.0011282059337342238	 -0.0012970104254363289
1718177638	 0.31678583936672655	 0.25060910229431466	 -10.331612616258859	 -0.0008316929849384615	 0.0009001963021226199	 0.0009192221694200117
1718177638	 0.3160246457358822	 0.25386105329496783	 -10.325984839504956	 4.279818855761116e-05	 -0.0006014725915254692	 -0.0014919660407234135
1718177638	 0.32083146149571984	 0.250288656434603	 -10.338409436792135	 -0.0027884916876175637	 0.001363398168022123	 6.859934962873956e-05
1718177638	 0.3133208666699007	 0.2526690487651154	 -10.329117876833676	 -0.0017005654151849756	 0.002165960877980404	 0.00017395373577609087
1718177638	 0.309548179730773	 0.25043343520015476	 -10.339773710882664	 0.0003726826719196748	 -0.00039229393401380797	 -0.0018731439754572647
1718177638	 0.30280283365640787	 0.24790762478327377	 -10.336550657182931	 -0.0003580946803982572	 0.0015057817090268501	 0.0014704186228060156
1718177638	 0.3001503281199373	 0.24678252974348142	 -10.341412710261345	 0.0005228462063256885	 0.0004841136621661047	 0.0030622740103534167
1718177638	 0.30735092541482295	 0.25347861158233137	 -10.339486126112938	 -0.0004891660610632431	 0.001350603811593759	 -0.002684297590562815
1718177638	 0.3098355453047901	 0.2479043368476443	 -10.330168847191333	 -6.46011294995211e-05	 -0.0005039072038529146	 0.0024944586775497756
1718177638	 0.3039950025830418	 0.25466800402998924	 -10.327927790266274	 0.0013801583978355083	 0.00022683968725967796	 -0.004627654871892448
1718177639	 0.2923523311874829	 0.2569023024206981	 -10.334251148068905	 -0.0003628180202554324	 0.0006767003904620775	 0.002358543835198661
1718177639	 0.3068607672777027	 0.2561026947419159	 -10.341667561805247	 0.0001952172175489484	 0.00028605961889642274	 -0.002586856583436289
1718177639	 0.3109166550723836	 0.2568322328591719	 -10.33787985996008	 0.0013394855041541657	 0.00020925310378725053	 -0.0012046892414757499
1718177639	 0.30270141910854725	 0.2585236930774525	 -10.334287388426064	 0.00054516656513759	 -0.0014796667357730735	 -0.00038684144327663536
1718177639	 0.30980116811115294	 0.25003933958234265	 -10.337495244556665	 0.0023792644768362388	 0.0018867913756722948	 0.00048355430731117426
1718177639	 0.31387192468140274	 0.25083604291798545	 -10.336042123138904	 0.0019424595047590322	 0.0005941122280478976	 -0.0031364316034418146
1718177639	 0.30756321645863355	 0.2533133014854044	 -10.34382678566575	 -0.0001590907806743524	 0.00023002494755760235	 0.0007936526285954056
1718177639	 0.3116079252721742	 0.25437371552484106	 -10.337123488634823	 0.0010826976081615436	 -0.0015574060724681679	 -0.001450449595968275
1718177639	 0.30875611603762954	 0.24664977020928636	 -10.323154584515095	 -0.0005448394891643565	 -0.0015307130840266274	 -0.00011810352215242072
1718177639	 0.3003165149996988	 0.2501924843174405	 -10.329500154149532	 -0.0008220635379920747	 0.0011480294489870132	 -0.0008564478995085887
1718177639	 0.31545513875223696	 0.2530605505670421	 -10.337036979395151	 0.0011851160477609683	 0.001258720852871147	 0.0028961052419000824
1718177639	 0.31326120890453457	 0.2551450469572097	 -10.326579882788657	 -0.001361391824640344	 -6.128448290343323e-06	 -0.0014441171762610684
1718177639	 0.3090805622190237	 0.25409621375771235	 -10.335108057159184	 0.0006992485093642756	 0.0013961811868997804	 0.0001645288210318309
1718177639	 0.30703696409482506	 0.24927966205514965	 -10.338360336953402	 0.0003808776789254042	 -0.0026209655912609944	 -0.0012656983869420197
1718177639	 0.31067484567314385	 0.24472413590895012	 -10.337886874222756	 -0.0022817178795336798	 0.0016318480568311752	 0.00028891695797955675
1718177639	 0.3096664358155802	 0.2448340990894474	 -10.32901850811243	 -0.0004565406472266586	 0.0011769569960306983	 -0.0033096746536149975
1718177639	 0.3063144037076272	 0.2548642937870696	 -10.33424179571867	 0.0007486020988536641	 -0.001588833583962867	 0.0024344642120632852
1718177639	 0.31232484136987476	 0.26161272686766457	 -10.329304923838377	 0.001841242478504883	 -0.000697373698572468	 0.001457818281824253
1718177639	 0.3135418524768203	 0.25925628166832027	 -10.327069712132214	 0.0019250835489807285	 -0.003556532001611229	 0.0020235601720702133
1718177640	 0.28963938243435694	 0.23604153816169127	 -10.332594613033532	 0.0020663615140290173	 0.0038507886755986924	 -0.005831195104999451
1718177640	 0.32138368855100125	 0.26465578435799103	 -10.330942754173279	 0.0027485830223408308	 -0.0011771879420314785	 0.003719390283979054
1718177640	 0.31414025676138696	 0.23194619513945652	 -10.340773243314027	 0.00017483620047079547	 -0.003141628148533697	 -0.004144630270963131
1718177640	 0.30265874901060014	 0.2474103062530048	 -10.332689305579661	 0.0012030622164972797	 0.0025748234645577945	 -0.002766420480009207
1718177640	 0.31514742450993505	 0.2363549514924176	 -10.342705672681332	 0.0020665703537121557	 0.0023166367588070675	 0.008326684717174331
1718177640	 0.327002222552523	 0.2510670751948841	 -10.340908852392435	 -0.004540920604585882	 -0.00361881382078788	 -0.011915158527258348
1718177640	 0.31430158480294046	 0.2638585147667676	 -10.34216674349904	 2.6974583917153904e-06	 -0.007128510337544918	 0.011219944485882366
1718177640	 0.2181015567202121	 0.2538516096131876	 -10.347340931266546	 -0.00019654688004583964	 0.01762066179148177	 -0.006070589880308307
1718177640	 0.3963634896788746	 0.23648740049935876	 -10.335170016479491	 -0.00543482622893049	 -0.00458889911609934	 0.003845933348021477
1718177640	 0.29031991204442453	 0.24936792486049233	 -10.343954211437701	 -0.002275895335541034	 -0.00537008020552254	 0.004455310378512842
1718177640	 0.26930266031576316	 0.2675462085698731	 -10.345032069802283	 0.002936191277866604	 0.00726091261605984	 -0.016236803186184433
1718177640	 0.2837574299899861	 0.23847261949982493	 -10.333694683229922	 0.006019557576068314	 0.003483997792460749	 0.0033621220222584203
1718177640	 0.2962427992873825	 0.29091563118156044	 -10.330880794852972	 0.012852095009153753	 0.0011865573796712436	 -0.02109011154633931
1718177640	 0.31222835872545834	 0.2710263605695218	 -10.318882898545265	 0.010805519169563209	 0.008151871598299897	 0.011929355464522532
1718177640	 0.298628086988721	 0.23178050145003942	 -10.322234547060727	 0.004049066220241595	 0.014561488647307747	 -0.034778969689401355
1718177640	 0.34053679037559775	 0.2568629385246895	 -10.329516520762443	 -0.0022827667592872237	 0.005350036797427791	 0.003998430789421863
1718177640	 0.42630730397850275	 0.1874367164033465	 -10.326998400461672	 -0.006523259126148573	 -0.005796563607855413	 0.013260313911776267
1718177640	 0.41347449121661484	 0.18394191482383757	 -10.351396344137191	 0.002310454792096991	 -0.0263584309101937	 -0.04733966494103
1718177640	 0.1915306529197842	 0.25966230518594385	 -10.324047733962535	 -0.003097581700742983	 0.0030396168552903773	 0.003482818615470278
1718177640	 0.12128708653356879	 0.17112576093580573	 -10.416157862383127	 0.012042728104662347	 0.0387503836978468	 -0.021512975754362656
1718177641	 0.3462794622134417	 0.40584644402358677	 -10.328578947651385	 0.011330265934038899	 0.018685312452105984	 -0.011140537552614072
1718177641	 0.25034842379782346	 0.13989052771930582	 -10.358217714589834	 0.0005366196450605702	 0.03359881481946796	 -0.005398610358997314
1718177641	 0.4643996456813067	 0.2442097201134078	 -10.341267748832703	 0.003465471137830584	 0.001071741066952227	 -0.00038996175001184026
1718177641	 0.5027539993211627	 0.3004290171971544	 -10.246502721989154	 -0.017917912181026643	 -0.052249385502916024	 0.01325381205364619
1718177641	 0.19387699685022233	 0.23916564326528458	 -10.378241096442936	 0.0066791976109457215	 -0.0009480597307471763	 -0.03335548928080799
1718177641	 0.20033369870893655	 0.14206146941706538	 -10.34304118824601	 0.0037143386002863104	 0.02670612739644956	 0.040290152699914164
1718177641	 0.44837994651161134	 0.29191614999361337	 -10.342218181425332	 -0.009116607944964907	 -0.022289867698014606	 0.0707551218349558
1718177641	 0.48328817828558385	 0.17417522990060968	 -10.379065272307395	 -0.023425616437365532	 -0.08948634884873043	 0.07024929599778729
1718177641	 0.3747565284287557	 0.22613087819050995	 -10.504541079235077	 0.038285932564926184	 -0.09839326614736522	 0.02040815921495408
1718177641	 0.4191673690959811	 0.17155423374725504	 -10.303666624712944	 0.009942490609404006	 -0.1584130108582651	 0.0005327384583776931
1718177641	 0.1398800245916005	 0.09455715624652802	 -10.350725313007832	 -0.007010841789701399	 -0.09252904368365959	 -0.010658971448500493
1718177641	 0.06450758458406199	 0.2506258159670979	 -10.549584336054325	 0.041419004268160704	 -0.022809554456419148	 -0.030354978501426766
1718177641	 -0.02348430171260843	 0.28450912514012305	 -10.703370876187085	 0.06903677539823101	 0.053137920072296535	 0.015674419505662656
1718177641	 0.021167786664853337	 0.3093439623955637	 -10.817293023443222	 0.1089483472656228	 0.11655667392722134	 0.03110849912591867
1718177641	 0.09161730340234935	 0.16213899261020123	 -10.844238313513994	 0.06626292251415616	 0.13270703152860017	 0.06765977131184873
1718177641	 0.3082401293395087	 0.1179452744255308	 -10.655316162592172	 0.0410384635155236	 0.11342730984356691	 -0.017474487537150044
1718177641	 0.4881291155107319	 0.12841478298902512	 -10.470544117087124	 0.02174367416438537	 0.00870925456969667	 -0.04178823906973258
1718177641	 0.48808304787930096	 0.08446976060210727	 -10.441569367015362	 0.03224788058344403	 -0.025113634046582435	 -0.03535866079611674
1718177641	 0.44557347425613547	 0.016078525817999616	 -10.401279442203045	 0.016140868009400833	 -0.017950128107838196	 -0.010828163320909988
1718177641	 0.4618923390354961	 -0.11637409785236232	 -10.27247419859171	 -0.03587407401320955	 -0.08507662845912839	 0.002777608617405117
1718177642	 0.44847259323112665	 -0.100670497160824	 -10.14902434453368	 -0.040762297871671585	 -0.12015528699494772	 0.007672113530895131
1718177642	 0.37452100263983007	 -0.07687518642041832	 -10.275514881461858	 -0.03580556835535646	 -0.15284600549459068	 0.02243769602505462
1718177642	 0.30005735260685906	 -0.09930878948671742	 -10.326876819908618	 -0.08813795709930969	 -0.15990731054590854	 0.07080870130713683
1718177642	 0.23729067970626055	 -0.007747100145567674	 -10.366706141471862	 -0.11440424055519205	 -0.190576723067695	 0.06575936868629262
1718177642	 0.08248671529241837	 -0.026167770926211958	 -10.368561413949728	 -0.18826305193641824	 -0.2094444370873362	 0.04293552054496031
1718177642	 -0.12224640568555332	 0.12792259729159997	 -10.348830293041466	 -0.1742297908883547	 -0.15918169901740284	 0.014129618585551267
1718177642	 -0.2599330118861049	 0.16063114533051848	 -10.423085615819693	 -0.22536940803671027	 -0.1449064897843056	 -0.021470462964867664
1718177642	 -0.4275043317433446	 0.38074776820018885	 -10.407934808439016	 -0.18721809410369838	 -0.08598879442199416	 -0.03524224320577745
1718177642	 -0.5406521701587363	 0.5869403855377808	 -10.461709653246402	 -0.13144973653321695	 -0.01724036030722385	 -0.04171691212559969
1718177642	 -0.6042102308990434	 0.7062533224541694	 -10.574675522691011	 -0.06657468713164197	 0.011761352651927867	 -0.022907242534154618
1718177642	 -0.6210816149946302	 0.8557965989939867	 -10.61689904591441	 0.05568868328080682	 0.03510507792607076	 -0.02398827371607742
1718177642	 -0.6625136955793947	 0.9483769022095948	 -10.506238530802726	 0.16997430913776027	 0.08130667426476902	 -0.09652097235487705
1718177642	 -0.6921654681298881	 0.8939853868085891	 -10.360046099060773	 0.2858526592905816	 0.15576854183008684	 -0.1365170163630948
1718177642	 -0.6028407326441257	 0.7797022242203354	 -10.27912956482768	 0.3407585854315545	 0.19407896299347413	 -0.07435354348797883
1718177642	 -0.36452184240128843	 0.5583796230943873	 -10.334138919866085	 0.3276291346784366	 0.14493565139824197	 -0.002760734995185943
1718177642	 -0.2109921996390447	 0.38214298541825265	 -10.37870169969201	 0.3190775246811104	 0.09915922456638564	 0.027547534417508682
1718177642	 -0.14140374529385008	 0.19481860681558028	 -10.422158564102649	 0.28767076607726505	 0.07850909011866804	 0.013438883024055282
1718177642	 -0.025459953733708244	 -0.03398861444471404	 -10.470046104437111	 0.24227751819200072	 0.020378234022798918	 -0.0511965089271424
1718177642	 0.005686062262800987	 -0.21433014842271803	 -10.506458311033247	 0.1955689017548326	 0.0026544527613741394	 -0.06922920543174606
1718177643	 0.10785906609119847	 -0.46859607445783913	 -10.50160677934885	 0.1432907000166841	 -0.07995579412420474	 -0.06875495053706258
1718177643	 0.06953435867093503	 -0.6899319369241594	 -10.61117657661438	 0.06716133574670519	 -0.08478361416019242	 -0.07546917495812666
1718177643	 -0.04343344243585597	 -0.7573362247638404	 -10.692365498048067	 0.01878593000704054	 -0.04465581441823221	 -0.0005504017312667648
1718177643	 -0.19001102387076244	 -0.8238925905372947	 -10.662906763851643	 -0.02772036524987642	 0.05181863584135252	 0.06624121359008281
1718177643	 -0.09739939393512904	 -0.8170322032485157	 -10.656353104424475	 -0.09293984460418271	 0.026991516316170576	 0.13133099283811306
1718177643	 -0.0019290766433594398	 -0.6686119393892586	 -10.521008229911327	 -0.07188465999942088	 -0.06588676765493928	 0.16709102113882915
1718177643	 0.062204358276142735	 -0.6918797830563038	 -10.506190600007772	 -0.07319553446698514	 -0.12840314682519355	 0.12604449323862965
1718177643	 0.08068805923946201	 -0.7714521361388266	 -10.34856375105977	 -0.16257090439966493	 -0.18640060351758495	 0.0681564425327701
1718177643	 0.0077226329954137325	 -0.6073108637955039	 -10.160367576324939	 -0.18582998796452183	 -0.25418471116282676	 0.05725626151031949
1718177643	 -0.14890011066491715	 -0.44190753562711177	 -10.11834863576293	 -0.18385691849190938	 -0.2793511507003984	 0.0816768037220196
1718177643	 -0.40807672382630406	 -0.2597396812710911	 -10.053115992873906	 -0.12821211495125082	 -0.2503787876489945	 0.13622962799196162
1718177643	 -0.6910102336801588	 -0.17240745304310692	 -10.145475127619504	 -0.0475766196990198	 -0.1632674042485047	 0.07569203992947425
1718177643	 -0.9007814036242663	 -0.24797723768707364	 -10.231502721256017	 -0.06210889471752614	 -0.09380910870636298	 0.0891417690931878
1718177643	 -0.9139214557044207	 -0.2583722836417146	 -10.378716897261143	 -0.08208688059562137	 -0.0715347539216981	 0.03297045652442598
1718177643	 -1.0538776964705436	 -0.20715490476479753	 -10.399076963722706	 -0.16013734108506414	 -0.004491642241595058	 0.04727345625961711
1718177643	 -1.0314669810894876	 -0.06981733576420228	 -10.375472800773382	 -0.16798712491137038	 0.018706228669636112	 0.07797728181611444
1718177643	 -1.010433691541478	 0.07275662235280032	 -10.326391666740179	 -0.17831554605372701	 0.038316346696812734	 0.13467410056638154
1718177643	 -0.8607357358966022	 0.07904910552655346	 -10.260699589645862	 -0.23374093841007665	 -0.0028433759526881393	 0.22657801711841546
1718177643	 -0.8436320408824831	 0.10463192987139336	 -10.2433603323102	 -0.3295034008746071	 -0.04466100342116866	 0.2351653966981328
1718177643	 -1.041000606175512	 0.3132202558396384	 -10.160144288963078	 -0.36982485820089733	 0.034190727338873295	 0.1978352185529764
1718177644	 -1.1743060107503085	 0.6562222672849893	 -10.204822804123163	 -0.3187350421649262	 0.16563906571251796	 0.14530709579128076
1718177644	 -1.1504065181162209	 0.952604091450572	 -10.254718761670588	 -0.2735644012572789	 0.23301863918817672	 0.12124394563668008
1718177644	 -0.9716164696302264	 1.1190673770006745	 -10.387909088498354	 -0.28882274969629246	 0.28589959750479427	 0.12064182988134839
1718177644	 -0.6924092137578874	 1.3167752572506666	 -10.515167687189578	 -0.22957989900963915	 0.2828295054001509	 0.09398450283127993
1718177644	 -0.3053496868613176	 1.6636603572070598	 -10.485415523004532	 -0.12726097529030742	 0.2599831119357154	 0.13297958942141297
1718177644	 -0.05491160745208617	 1.9767074849694966	 -10.587761798757315	 0.09062946081237651	 0.14608438928969084	 0.09816533284756807
1718177644	 0.040088232794334176	 1.899600718282908	 -10.395968476313351	 0.26092418984116533	 0.09753002744715127	 0.04536899647458782
1718177644	 0.05237175937669817	 1.567542016058415	 -10.37484151713252	 0.2456951528188994	 0.0985752266288449	 -0.12472666126271757
1718177644	 0.06158522629737854	 1.2904980756998061	 -10.394614723616838	 0.18691241314482773	 0.05239334600459162	 -0.2520620219712223
1718177644	 0.022092283381917512	 1.3653824901618064	 -10.55128997092843	 0.2518768324069209	 0.004013800921967038	 -0.24792180516155785
1718177644	 -0.221562730024755	 1.206533186746761	 -10.747892739480733	 0.23194809836423533	 0.10329210936067396	 -0.2420937101425148
1718177644	 -0.2776695797099732	 1.2312424613937736	 -10.942227563101053	 0.2072228281059921	 0.22266877959904496	 -0.11814406773971987
1718177644	 -0.12852492883261293	 1.2823701526932418	 -10.837377195572852	 0.31501031177482774	 0.2659092112828733	 -0.08375965368819217
1718177644	 -0.010699394629499875	 0.9450940080814063	 -10.746551846265792	 0.2942353582957695	 0.3278390916408757	 -0.12291939853509777
1718177644	 0.33912158981543034	 0.8438734484229237	 -10.888805769515036	 0.367033266167249	 0.192223888201909	 -0.22687479313239117
1718177644	 0.6690275344528257	 0.2572477000585757	 -10.797213527488708	 0.1967263781436083	 0.04546742524400147	 -0.18095577066891794
1718177644	 0.7640615874961018	 0.07824157026964239	 -10.90385019391179	 0.17425269407372937	 -0.06907238685543242	 -0.26164121267515555
1718177644	 0.651002779071033	 -0.1110567844202742	 -10.747257948708533	 0.09175117594113948	 -0.05085637748285804	 -0.16301268953499543
1718177644	 0.5603139521578326	 -0.07478468041457235	 -10.584193877142667	 0.13400444871028114	 0.02801680836871586	 -0.12331660901168309
1718177644	 0.5976169701138511	 -0.31654662378337234	 -10.403643248724936	 0.01759684106388777	 0.10487932008084755	 0.05600328999051845
1718177645	 0.6639847910452634	 -0.2734267362421378	 -10.069513000923395	 0.02005655745263097	 0.1705062922102604	 0.07140064711605579
1718177645	 0.912741817465797	 -0.43566085978988556	 -9.958072733610868	 -0.11522541795493957	 0.12800981457694566	 0.14108673447756176
1718177645	 1.2800732739277183	 -0.17670317747564984	 -9.729452194029092	 -0.05789663523918586	 -0.11762979468846876	 0.14141377065942348
1718177645	 1.2623678136281669	 -0.1991863918373361	 -9.626631871023774	 -0.1130463696167663	 -0.2758219129790686	 0.08067328301138571
1718177645	 1.012489528092742	 -0.028014517604326827	 -9.486245495212078	 0.0262445682900252	 -0.17993243437529818	 -0.06483371630921912
1718177645	 0.9738988814789801	 -0.1548795230012387	 -9.461638292700052	 0.08638457344949355	 -0.12903161955293863	 -0.24724927376252875
1718177645	 1.1969728928495198	 -0.07343492803974076	 -9.573040566089748	 0.09842033052194316	 -0.3959106209467643	 -0.295306248659604
1718177645	 0.9237144623789936	 -0.06761157391481101	 -9.655270521008967	 0.1531997898006509	 -0.47798784758343416	 -0.2819628794919255
1718177645	 0.4164534339621663	 -0.12208779019089415	 -9.805887783455848	 0.1537534776360352	 -0.40226888475981487	 -0.28811138607961867
1718177645	 -0.202127358926367	 -0.08027749654403887	 -9.980863242089749	 0.08768601866232324	 -0.1400658449631935	 -0.21174988570874734
1718177645	 -0.5691789572672918	 -0.2541679638196714	 -9.831109902995824	 0.011501115000048589	 0.05449356061330934	 -0.044882074919969664
1718177645	 -0.6563322304654866	 -0.337374417354539	 -10.135728809630871	 -0.06065334402374333	 0.14246335573453733	 0.09254987459681105
1718177645	 -0.5083559109814465	 -0.34515349039081483	 -10.397143365311623	 -0.025593764540420894	 0.0786067781964035	 0.18490861745113849
1718177645	 -0.3962867711808532	 -0.19402809575870633	 -10.750525426071881	 0.01920029082492705	 0.1280883611843462	 0.18613247313008438
1718177645	 -0.13825193933257832	 -0.011352096659369999	 -10.778011983412503	 0.21233762871657103	 0.15640783364976035	 0.03238172731476113
1718177645	 0.13742440246725454	 -0.07962722507491707	 -10.65363975381255	 0.22300535322656054	 0.098439347156602	 -0.04604866847428967
1718177645	 0.08562439226363786	 0.041244421658711505	 -10.678573119539022	 0.30700435019534517	 0.12025946652784025	 -0.0977698534256913
1718177645	 0.018969616750162094	 -0.38334951166380193	 -10.423656109184027	 0.22277988335077173	 0.13542981413758357	 -0.010829636381887938
1718177645	 0.03700319019265007	 -0.6745922559078782	 -10.295025053095817	 0.1984630920694762	 0.21438473406748768	 -0.12583684989738755
1718177646	 0.20065401670448482	 -1.1335411619026212	 -9.888713366180658	 0.07332736094094405	 0.06575465822011453	 -0.13189739726770247
1718177646	 0.16234403192931784	 -1.1437765785824507	 -9.646700261062383	 -0.16117715568792876	 0.05970376064756196	 -0.09952098171095927
1718177646	 0.2811438499581069	 -0.910518880719319	 -9.396868006625771	 -0.15341142788352816	 0.029158326596897093	 0.022758715127328456
1718177646	 0.5839639635428786	 -0.6900065365303307	 -9.15600465606451	 -0.1982845271183864	 0.033872521200500855	 0.08258871169115477
1718177646	 0.6922474473249167	 -0.5664163606861606	 -9.239330005005002	 -0.23799408989471726	 0.10869162685891758	 0.11162085438665253
1718177646	 0.8924658490911126	 -0.3568433071300387	 -9.48614963362217	 -0.29479538778349956	 0.22485984545163723	 0.18342655165975258
1718177646	 1.367638890786469	 -0.29469966149860993	 -9.552416880255937	 -0.3312780981355223	 0.13258055634395663	 0.22129743472997912
1718177646	 1.5341713691152632	 0.2590495618487708	 -10.226859279364346	 -0.12654974483168813	 0.010368048147139156	 0.14708360733068856
1718177646	 1.4134521090649068	 -0.06330921881208196	 -10.286196434473991	 -0.11930520597499443	 0.03288022737833733	 0.1386115675933069
1718177646	 1.3628089864119886	 0.2382999480803497	 -10.639307277077435	 -0.02210575380112226	 0.04480098166477675	 0.029470615524222508
1718177646	 1.4136467548541725	 0.05991904208424966	 -10.573369700789451	 0.09105461783565084	 -0.08751054131362224	 -0.05688346889197884
1718177646	 1.0970474875681102	 -0.0059535135641956	 -10.439095670378208	 0.1601422845778376	 -0.13385733402718947	 -0.17426021750380885
1718177646	 0.8100762466307729	 -0.21941682230355217	 -9.967224008315801	 0.16927646106361863	 -0.05607896537736873	 -0.1818505262161573
1718177646	 0.7062668395228684	 -0.34171675740778445	 -9.656054949384927	 0.13271583660495426	 0.014562750527933632	 -0.14909362816342586
1718177646	 0.8244445253316313	 -0.5045853064015507	 -9.499379117551445	 0.10312341475037425	 0.007440475732409782	 -0.06796176545708532
1718177646	 0.8681927739042788	 -0.5309318633941933	 -9.659403675290942	 0.11181025507442761	 0.052261224086199265	 -0.03339209942341817
1718177646	 1.027368898120895	 -0.5659487797070294	 -9.949404273986817	 0.08534929454286047	 0.04901420653901219	 0.02588012925901007
1718177646	 1.10490901472345	 -0.6733543116107583	 -10.182384177821874	 0.025612454521727286	 0.014319407304219545	 0.05179928631155741
1718177646	 1.0954038850795478	 -0.8064283185824751	 -10.292139853048324	 0.007727849539380747	 -0.10341332480216459	 0.1017556901159152
1718177646	 0.8262292898565531	 -0.782934557205066	 -10.302799194228648	 -0.023535989900387105	 -0.03721324040616669	 0.07386761645758025
1718177647	 0.7123606994185596	 -0.7508471550054848	 -10.474071122169494	 -0.01721679133157665	 0.03660400901729744	 0.09155205471538562
1718177647	 0.766903898249939	 -0.6416509402927011	 -10.558554408973455	 -0.03279439660923652	 0.06114066921371421	 0.05020494331308944
1718177647	 0.8555844906132668	 -0.3105160749148577	 -10.636582236027717	 0.04312805460820543	 -0.09904215366934144	 0.08079256766108604
1718177647	 0.6841469237819313	 -0.3597291282320395	 -10.461202288246154	 0.02358962554862238	 -0.17268876936833716	 0.024442486242963444
1718177647	 0.4140138953229412	 -0.2500115565262735	 -10.292094260340928	 0.022068080474670647	 -0.16008584220748473	 0.02833508108611555
1718177647	 0.26061359629509967	 -0.11749624288324266	 -10.019363360875845	 0.10784817045217586	 -0.12720980098548587	 0.01914304118386875
1718177647	 0.1218197321055457	 -0.26813206390012057	 -10.018878207707404	 0.10812685361549583	 -0.0378009001902063	 -0.06275894321129007
1718177647	 0.17349312938796355	 -0.40983986104130743	 -10.058729741102457	 0.049605786163281256	 0.026681154019446263	 -0.057776589091861334
1718177647	 0.44691849565692243	 -0.4812039193574339	 -10.029804090869426	 -0.028752519103417862	 -0.05004532425644202	 0.0008354286925456782
1718177647	 0.577830465756543	 -0.4480515548074618	 -10.140426027536392	 -0.05460770619434366	 -0.16873052968490918	 0.05587439715494782
1718177647	 0.5111515695819631	 -0.4820202772416174	 -10.141917727398871	 -0.11376049626307105	 -0.1671554862819659	 0.12117605999601828
1718177647	 0.37584910943843425	 -0.4043396927224472	 -10.273315910112856	 -0.1274195165989512	 -0.12416024851074976	 0.17230993470327338
1718177647	 0.29738743927786127	 -0.39332470650486645	 -10.465866772925853	 -0.12853367500812107	 -0.07589167714268932	 0.13052814963799503
1718177647	 0.295950465277303	 -0.3517414174137637	 -10.588246951925754	 -0.16547884328343607	 -0.10963699911162526	 0.12243938039336781
1718177647	 0.2759196490364149	 -0.2798741953484714	 -10.573778866112232	 -0.18027396814034402	 -0.18551951331568903	 0.12736638653520413
1718177647	 0.1194571220268961	 -0.19545635672984643	 -10.698639756011962	 -0.1760496120849899	 -0.12979766951812152	 0.10985626049312285
1718177647	 -0.18509786165961994	 -0.027497074168059042	 -10.606486372971535	 -0.11057715323307209	 -0.04420674720179601	 0.12712905727018603
1718177647	 -0.31292032304499295	 -0.15056981570911593	 -10.431920079660415	 -0.14544037035908242	 0.024490173471232675	 0.1268481437094531
1718177647	 -0.3568724236266687	 -0.13148045416995882	 -10.22297454688549	 -0.14374972912007286	 0.01137200994382859	 0.10897948128324152
1718177647	 -0.3445466105388477	 -0.15324521806398406	 -10.109202037233114	 -0.17194238518332883	 -0.022312764641605483	 0.1603010922025904
1718177648	 -0.24418800147194414	 -0.05992091894750483	 -10.116476996672153	 -0.15704844040522212	 -0.06709504384150823	 0.13896056653178337
1718177648	 -0.17886875801170243	 0.13266865930752827	 -10.091014054113625	 -0.165456239703684	 -0.1610256884009305	 0.08512498147767014
1718177648	 -0.28996128959879275	 0.28372122616544365	 -10.018062215149403	 -0.08306337854356936	 -0.10141505516773726	 -0.05298204192474284
1718177648	 -0.35855416616853325	 0.4448862957095727	 -9.992997916519641	 -0.002273281068424093	 -0.03071931766390102	 -0.19390978568522685
1718177648	 -0.4225702728746459	 0.5161588398173451	 -10.035637619328499	 0.08015462406671438	 0.03110017050572837	 -0.22583589399115128
1718177648	 -0.4017571654159576	 0.46485992013681676	 -10.192172581386565	 0.12212081639272389	 0.061402632718815534	 -0.19342791997549064
1718177648	 -0.3203477696320042	 0.3112516591804102	 -10.330278737306594	 0.17395868108938461	 0.0872201152743707	 -0.2043515742662368
1718177648	 -0.24248532573990522	 -0.01494339458302711	 -10.557953520470857	 0.11020294581040233	 -0.004022931351301941	 -0.16763999850803538
1718177648	 -0.3415883452551439	 -0.08614611458280123	 -10.670837556850909	 0.05788076862475387	 0.008231752386988714	 -0.07881083459255242
1718177648	 -0.4388549431234598	 0.0259660104095703	 -10.638492453563213	 -0.0033030112893289703	 0.0022203226537316463	 0.03597773339745168
1718177648	 -0.4703323967311531	 0.228382913167309	 -10.619479125535488	 0.0014317683271517772	 0.09120169090685047	 0.09173981589461461
1718177648	 -0.3427887705534696	 0.3002069171453826	 -10.449156461143494	 -0.03470630700353423	 0.0738607504953949	 0.10831761917332958
1718177648	 -0.26583041762793436	 0.3773437319103628	 -10.351519093734025	 0.007289469297115785	 0.09730420803146936	 0.05521982128733076
1718177648	 -0.14229409086285158	 0.29734201096724716	 -10.312303520154952	 0.01333832060487767	 0.05003879535058212	 0.009687154838406155
1718177648	 -0.05242837123502977	 0.3150385573079809	 -10.186916560554504	 -0.01435758309426745	 -0.024475702935778377	 -0.00807663833780246
1718177648	 -0.051447260376345366	 0.3709411348590627	 -10.040158311623335	 -0.028782408925464797	 -0.0844685039465872	 -0.006296607992774668
1718177648	 -0.1708517845663242	 0.40661790332011877	 -9.908836116755008	 -0.019301780148999685	 -0.10089535592576511	 -0.058426050857947595
1718177648	 -0.3435710069723427	 0.42512324529308826	 -10.00773254431486	 0.015805615559457288	 -0.025777926290989076	 -0.11431474169780857
1718177648	 -0.42290995315778995	 0.24369903064491225	 -10.138365003353357	 -0.017548255018750635	 0.03765262869651614	 -0.13392486180557978
1718177649	 -0.48260457993559536	 0.1618811636579223	 -10.244859046435355	 -0.09317637492087379	 0.06936821411826978	 -0.1660523050899142
1718177649	 -0.5172772859206423	 0.21878774888608604	 -10.42519807792902	 -0.10021363662097527	 0.09616441669680748	 -0.2184383648522109
1718177649	 -0.46990153103321786	 0.18991859634695574	 -10.62049970075488	 -0.13288960786608192	 0.15383448766744404	 -0.29123810364693986
1718177649	 -0.28954266232792286	 0.2827665740554221	 -10.796799685990809	 -0.09315507795453155	 0.12844874513648277	 -0.3387050219149944
1718177649	 -0.21227434840407222	 0.24474174463087692	 -10.827608665752411	 -0.07506930132045125	 0.0991384186203694	 -0.3509938458700288
1718177649	 -0.19938315651845187	 0.019757584223500452	 -10.746607960367202	 -0.1368659570449224	 0.09518607118085323	 -0.387244561601592
1718177649	 -0.19693417419744655	 -0.0735327075920999	 -10.48454224730134	 -0.1881442749518007	 0.09630217702657022	 -0.40223626103646143
1718177649	 -0.16793540392927825	 -0.05032153971546795	 -10.158529839503764	 -0.23289653325219659	 0.080673657518414	 -0.415967253300801
1718177649	 -0.14830836445000023	 -0.004376691274474433	 -10.054848515754937	 -0.23229848713990567	 0.11446113233397887	 -0.3648709790991864
1718177649	 -0.019550910069723614	 0.07032522135425824	 -10.047311690509318	 -0.21164625545282964	 0.16032987098712007	 -0.3581876764750917
1718177649	 0.15812761981068177	 0.21160329900840297	 -10.066413865864277	 -0.19887363499626873	 0.16494993949094633	 -0.3621120107888916
1718177649	 0.2825226640306413	 0.38866855126209554	 -10.001882649242877	 -0.17683486177715657	 0.18308020755998777	 -0.39808832105963576
1718177649	 0.4430954302374273	 0.6026832039948552	 -10.04031496348977	 -0.127917752427013	 0.1875750908478235	 -0.41723232139761585
1718177649	 0.6362787457350642	 0.7845483490772545	 -10.146893177723884	 -0.08497376386202407	 0.155425227076062	 -0.40974291320106776
1718177649	 0.6901639190491289	 0.9123042297661303	 -10.236202277249097	 -0.0368766542950835	 0.15895581302269368	 -0.41018020425205876
1718177649	 0.7482348536152392	 0.9575341682638973	 -10.362463681596516	 -0.006151188474134683	 0.12467382248221473	 -0.3674169611013022
1718177649	 0.7196242606807499	 0.9377212142910808	 -10.443900440311431	 -0.026122443628693655	 0.1174656357744006	 -0.28862993683337074
1718177649	 0.6808111304227262	 1.0020322853557766	 -10.63120580368638	 -0.0445757406543941	 0.1039970148117043	 -0.2621972640660073
1718177649	 0.6621148324549198	 0.9859481426477432	 -10.517069721418618	 -0.06422646148522142	 0.0802026774796335	 -0.28276925138048786
1718177649	 0.6054615461343898	 0.913172244772315	 -10.20184408057332	 -0.11358825631957017	 0.030072019716200448	 -0.33149814182059006
1718177650	 0.46500002272725105	 0.9674112730253487	 -10.136246696025133	 -0.15701133924228594	 0.08597968141763904	 -0.4269944046894103
1718177650	 0.4654892310163006	 1.221620427371934	 -10.26644660886526	 -0.11122705608521388	 0.19399635506541124	 -0.5108012212960321
1718177650	 0.8200171373434364	 1.5662006844520568	 -10.264882428288459	 -0.006496762753896887	 0.11276281786207852	 -0.5516343384467538
1718177650	 0.9743692024044692	 1.5616436056695877	 -10.238506462538242	 -0.008580534423477972	 0.008935155128568038	 -0.6083459543858276
1718177650	 0.8939113717243075	 1.4759176253281532	 -10.17263902887702	 -0.01180932388136022	 -0.03035165163065877	 -0.717026296099626
1718177650	 0.6960027812704443	 1.4180527347281575	 -10.148562572240829	 -0.025384490013011105	 0.03210056200208142	 -0.855991439939533
1718177650	 0.562983354030177	 1.52764503608644	 -10.130090511482953	 -0.017502502743460917	 0.12846375038474966	 -0.8868521506513711
1718177650	 0.6054864979125559	 1.4756573669567703	 -10.08703462908864	 -0.09538983629375793	 0.1293918786693991	 -0.7974732020959766
1718177650	 0.6569125145714729	 1.4506217098996042	 -10.175334843832253	 -0.11124358432872919	 0.09812496098991814	 -0.76667447645851
1718177650	 0.6147551153868437	 1.3403420107990502	 -10.215076487112045	 -0.1727255709256507	 0.09145093781774667	 -0.791906929101602
1718177650	 0.48319118418451396	 1.3722425851896405	 -10.285810650026798	 -0.19632698720388048	 0.09846593715561076	 -0.8006895683234925
1718177650	 0.4072767325550318	 1.4011414935462176	 -10.348611681854724	 -0.24141438768270604	 0.1236008348790218	 -0.8121312407357727
1718177650	 0.4521048122536391	 1.5323808324366808	 -10.322185447221994	 -0.2225621033526305	 0.10117042717685666	 -0.7878877529634816
1718177650	 0.4959248108882457	 1.6936898770287632	 -10.317656571620702	 -0.19864616774966234	 -0.02805915054945352	 -0.7776138766892012
1718177650	 0.2127506058800034	 1.8429579168237744	 -10.238008449888229	 -0.15792690073554155	 0.016792416611872522	 -0.7585301303708841
1718177650	 0.08949725164161063	 2.07466984654963	 -10.158172112107277	 -0.02839554940702256	 0.0809596477299749	 -0.7141736510979876
1718177650	 0.14603860202026553	 1.9741098696917294	 -10.099648611468076	 0.009576641975546274	 0.11403276287263962	 -0.6712124684992109
1718177650	 0.3123067942565307	 2.0160710887171325	 -10.128244591355323	 0.0704277277908226	 0.0712634859975383	 -0.6475972870070967
1718177650	 0.31033395981360223	 1.926581956449896	 -10.181996055287122	 0.10261588282563239	 0.050138763760000975	 -0.6452766084332017
1718177651	 0.26955093598840757	 1.895605072775483	 -10.214497810441255	 0.14361768626427537	 0.045781070719007146	 -0.6527784003288186
1718177651	 0.21088735102508216	 1.8683653298027811	 -10.216494537216425	 0.146737063493842	 0.0816291581056424	 -0.6435821056106116
1718177651	 0.3005697408420965	 1.8830241158828138	 -10.16892497678995	 0.1656510000031529	 0.063260437250498	 -0.6314099281113226
1718177651	 0.27538247341979294	 1.9521034973278641	 -10.227446139341593	 0.22757418916891642	 0.016105638341308827	 -0.6242351058185401
1718177651	 0.08921198669313453	 1.934394383766502	 -10.33056632207632	 0.30452731077594886	 0.08349447774502594	 -0.5659808538180379
1718177651	 0.010599726797442416	 1.6324243842050432	 -10.446264246833325	 0.28877318161050336	 0.15364428803134195	 -0.589849967720091
1718177651	 -0.09954046108443289	 1.4864102316394447	 -10.346637166911362	 0.262029684654414	 0.1790748465700222	 -0.5762238374236734
1718177651	 -0.1566152242200449	 1.4610805600717662	 -10.257027623134851	 0.19083150436023152	 0.21258333861664447	 -0.4738906075358609
1718177651	 0.0032717219969141294	 1.4995062984474004	 -10.063397732913494	 0.1560774185822656	 0.21143606546379515	 -0.3286436991852159
1718177651	 0.21999279556060208	 1.4818853015609084	 -9.922837754100561	 0.11558686717151218	 0.17145900480072263	 -0.23622157309694458
1718177651	 0.43507505925856527	 1.4061702814936636	 -9.981315662032365	 0.09609291914391725	 0.1316517622690347	 -0.2563290052487745
1718177651	 0.6547285946611314	 1.5372881859615444	 -10.010686717945337	 0.11118310560484918	 0.07781334760626325	 -0.25513276322138134
1718177651	 0.7545714362256228	 1.4707842079624533	 -9.911205768495797	 0.08701375357940318	 0.0023587440924290673	 -0.25427515877134854
1718177651	 0.79867025180161	 1.4590936240382493	 -9.77760802991092	 0.12394900990203603	 -0.03138386374084906	 -0.2710376106597685
1718177651	 0.6141737353023141	 1.392704358460009	 -9.786443662795424	 0.15910706392785337	 0.040867721600135895	 -0.2731142271645146
1718177651	 0.6063740213368087	 1.228395547530055	 -9.772391172045468	 0.15886661377093284	 0.11123164171571587	 -0.24692426824099822
1718177651	 0.7486153773654252	 1.0910310037575661	 -9.603129999405144	 0.14231939523286175	 0.0317200066852821	 -0.23094718255804267
1718177651	 0.751092581133917	 0.9205719996348023	 -9.533047578397392	 0.07794562348865612	 -0.06076010765513109	 -0.21812078289221898
1718177651	 0.584804177226685	 0.9288103972785174	 -9.582012392574548	 0.06360899926410814	 -0.007803970173475777	 -0.19882160348647132
1718177652	 0.6725740479532629	 0.9833468741081655	 -9.884769012469052	 0.06818760151752404	 -0.01818815437204783	 -0.19696935830356438
1718177652	 0.7069005343165248	 0.9926211176056414	 -10.061682745689152	 0.1614464345636494	 -0.13062161826987842	 -0.2006252626242411
1718177652	 0.5567044564237817	 0.7771150572713464	 -10.304534055197239	 0.1454539025463714	 -0.13172871930215957	 -0.21036978569759784
1718177652	 0.4904567547407001	 0.56750024693273	 -10.152856470042467	 0.20747151741753506	 -0.19961184660568188	 -0.19995336372597092
1718177652	 0.2010305583992973	 0.13043318273988552	 -9.898381358236074	 0.14910809245709636	 -0.09571341868858096	 -0.2237631723594994
1718177652	 -0.041130873715062626	 -0.10091470857970417	 -9.907076705867052	 0.09215231458033266	 0.051821952309147504	 -0.23842369106806066
1718177652	 0.0019303333083400501	 -0.11875114744831808	 -10.025399133908747	 0.0734227104303473	 0.2052378243427447	 -0.1590616570312675
1718177652	 0.323212109554559	 -0.07444859402773436	 -10.2022193436265	 0.05870922394441788	 0.1574422719961744	 -0.10056530704292023
1718177652	 0.5225428052334115	 -0.1590553291148506	 -10.329206724160908	 0.06685648286448598	 0.1250505099736496	 -0.04966017706735692
1718177652	 0.6646476388681679	 -0.31434114962834864	 -10.384924519729614	 0.018692213784399572	 0.08322897722910184	 -0.03606719064294312
1718177652	 0.8651743028659373	 -0.1724682615859434	 -10.586736547362804	 -0.010445650164590543	 -0.006469680694264843	 0.013441379737577232
1718177652	 0.7408658592171966	 -0.12642710716999137	 -10.624182188659907	 0.005935104680742428	 0.004685266536411428	 0.017282489227014843
1718177652	 0.653891120923683	 -0.10485323533872141	 -10.346637166911362	 0.022948076283806098	 0.05888208806629924	 0.04838760218521937
1718177652	 0.7279773707453161	 -0.2186711185027845	 -10.1200449182868	 0.006898610875849226	 0.06310665634230274	 0.03899960564160778
1718177652	 0.6704981915272772	 -0.2512826907069422	 -10.30559437790513	 -0.001171597254299751	 0.15568120679108904	 0.03675976232917504
1718177652	 0.7675504525251686	 0.016477226828981655	 -10.529947907692193	 0.0870718104911669	 0.2306824809904456	 0.008826970451067374
1718177652	 1.004646632572636	 -0.1832923831402324	 -10.446260739701986	 0.02309314574240436	 0.15271006776569895	 -0.03374531780774674
1718177652	 0.982490695670247	 0.0360567487885477	 -10.406769271790981	 -0.03343755833486906	 0.14622805018574378	 0.007535816899434619
1718177652	 0.9980535909831524	 0.2953382516630925	 -10.327131671452522	 -0.10252598449408541	 0.08922353646103165	 0.07221482539556345
1718177652	 1.0833895490936933	 0.6024524639789015	 -10.099740965926646	 -0.10408703797892739	 -0.006554388982578078	 0.0989083880812138
1718177653	 1.010490901621431	 0.9514924038816243	 -10.044108510553837	 0.006922171529118021	 -0.04631505532351405	 0.09358439616700914
1718177653	 1.0309708681356162	 0.887119446561858	 -10.107394695550203	 -0.000511205929715413	 -0.043045954345225325	 0.006795812337623517
1718177653	 0.9591800357747823	 1.0025317593105136	 -10.322459003466367	 0.1097763989499341	 -0.0780031061563098	 -0.1033595539152802
1718177653	 0.8019518307555467	 0.6653756608817726	 -10.232456660979986	 0.05289426996087871	 -0.03742862355932685	 -0.13443012172101668
1718177653	 0.650843716051802	 0.5570964148834348	 -10.139854365128278	 0.04420325596405448	 -0.009121661709252252	 -0.08928170156371466
1718177653	 0.7375027394596487	 0.34029848810769614	 -10.508833807992934	 -0.059635621174358756	 0.015266870554501866	 -0.0702899175267894
1718177653	 0.9656526658549904	 0.38914369449317454	 -10.704566807973384	 -0.005039790493852519	 -0.07237367463220827	 -0.11142732579918785
1718177653	 0.9356468191698193	 0.32215814352221783	 -11.232217055881023	 0.027244393864646606	 -0.015163691787612711	 -0.14746590410516944
1718177653	 1.2051009619865565	 0.282783872250095	 -11.919333058601618	 0.004981118766384012	 -0.01762948767378186	 -0.12666885471144193
1718177653	 1.3828520958788693	 0.1805225531007163	 -11.700825916755198	 -0.03982181501627771	 -0.13435965614304884	 -0.03037560551630727
1718177653	 1.3136257071785629	 0.14504507007142528	 -11.431259618800878	 -0.02720157730833978	 -0.1775347571563862	 -0.1299464736440297
1718177653	 1.1886363685935735	 -0.10757157265301794	 -10.752017125934362	 -0.09479809022192072	 -0.1487810063409642	 -0.11267017314565739
1718177653	 0.972657064724341	 0.0017141745162931328	 -10.032470679730176	 -0.013407824948139534	 -0.28015562508668407	 -0.11886416985372049
1718177653	 0.4753274285394698	 -0.3701648532569408	 -9.406686805328727	 -0.05770621922124519	 -0.2346449983763745	 -0.1657428624160038
1718177653	 0.08968885609041899	 0.0027746911610127423	 -9.208286631965636	 -0.028785756602178813	 -0.11285734343601952	 -0.0807914857518932
1718177653	 0.09093446310418657	 -0.2501817254614085	 -9.03604848934114	 -0.1406356615679296	 0.006496093842732465	 0.042536291891611414
1718177653	 0.49087563773989673	 0.10897103678793646	 -9.258178497859834	 -0.04868917605034642	 -0.06981977804822793	 0.17369642630103907
1718177653	 1.012006128489971	 -0.0053008315131010016	 -9.517824874824285	 -0.08578453828876348	 -0.37658442710070916	 0.12752000931820967
1718177653	 0.7308359019815921	 0.0867992173298262	 -10.166683919864893	 -0.00972839014281575	 -0.5315277385327646	 0.030287259308333096
1718177654	 -0.002894520431687124	 0.3400139720778912	 -10.5610795435369	 0.08008288516485036	 -0.3436147258321236	 0.07883743291393959
1718177654	 -0.29579701001495123	 0.3502014944953844	 -10.673253970342873	 0.049016536804966	 -0.3845238096529398	 0.1734247006460669
1718177654	 -0.7549384429071098	 0.38312867198735473	 -11.024081670445202	 0.05740320558465382	 -0.45864900372220113	 0.2079887698802557
1718177654	 -1.3057554121948778	 0.2426587095454335	 -11.433711103606223	 0.03595397716829033	 -0.3824378554396216	 0.22210287451215996
1718177654	 -1.7037630888842046	 0.13151068491144105	 -11.515731215167046	 0.09560815724649557	 -0.16083302534082008	 0.13386246061228788
1718177654	 -1.7664647519908845	 -0.22649952883981167	 -11.585948660731315	 0.0025345936074894354	 -0.03818080011970611	 -0.06109309849874267
1718177654	 -1.4794156965769827	 0.21632685693157835	 -11.352094312149285	 0.0809560857520169	 -0.008304724041154185	 -0.12044094431137234
1718177654	 -1.2388228335201739	 0.5538419431321323	 -11.522780549156666	 0.19411128711120498	 -0.1036867981566021	 -0.0892302692651625
1718177654	 -1.3147612870797514	 0.7877639501228928	 -10.924134272527693	 0.18505098005616002	 -0.07736753443978397	 -0.09841881584907318
1718177654	 -1.344592653980851	 0.5464890230860561	 -10.28610291097164	 0.07896519806723615	 0.004374413219361132	 -0.05698446095394169
1718177654	 -1.265236793193221	 0.599267659930326	 -10.128937834316492	 0.03045629721674207	 0.019564003728426215	 0.09461974997504789
1718177654	 -1.2673222211651503	 0.6059268255585805	 -9.869899944639206	 -0.048599818673395856	 0.0008277563048964443	 0.03764006190512233
1718177654	 -1.4286957092955708	 0.847852215860784	 -10.155295095366238	 0.0891756994299511	 0.004512337916097416	 -0.14778846284744845
1718177654	 -1.7123573142282664	 0.6199729961656034	 -10.718034192311762	 -0.0029243807826104832	 0.09726653262442314	 -0.1797062654197232
1718177654	 -1.8886241278469562	 0.3655087710794061	 -11.253941396433115	 -0.0029388729042337724	 0.18073742474904506	 -0.1645367334030637
1718177654	 -2.0759657315790654	 0.10507088754423893	 -11.730615490341187	 -0.04065110257378237	 0.30062601280557816	 -0.12237717893715765
1718177654	 -1.8950130982317028	 0.21547778408788143	 -12.324538830101488	 -0.06523044408785686	 0.37524685444321687	 -0.07676570996769651
1718177654	 -1.3629305669650436	 -0.30004020054265856	 -11.516510967367887	 -0.007314180519199278	 0.34423114775593605	 -0.08856956396584906
1718177654	 -0.8026450006514787	 -0.34343762638363984	 -11.349817014867067	 -0.0627057091178129	 0.464290377859316	 -0.14933154831731082
1718177655	 0.01654409978642361	 -0.19580595561880618	 -10.853386081087589	 -0.07235480780036074	 0.24506814482975386	 -0.18531072148622682
1718177655	 0.18643669078163802	 -0.14045903005595317	 -10.10861167012453	 -0.0405220349682652	 -0.016132559154859245	 -0.11021408947508862
1718177655	 -0.5219518536029383	 -0.30225018647601826	 -9.454398404574393	 -0.009106471288065793	 0.21195390049300422	 0.01002741319896121
1718177655	 -0.4096414523923769	 -0.530802136067301	 -9.613526890257	 -0.07648393087960932	 0.427563721951442	 0.040379622428973215
1718177655	 0.41379798754993824	 -0.5939990353450179	 -9.921881476289034	 -0.09542995015767725	 0.28804410797258057	 -0.024827156975884772
1718177655	 0.9521358163516968	 -0.4039902582302689	 -10.513614028006792	 -0.10054949452394787	 0.12049469855349991	 -0.08624572288815954
1718177655	 1.0614740698836744	 -0.004546947830810677	 -10.780901859635113	 0.008227115261770343	 -0.03131522908613067	 -0.05900593754055554
1718177655	 0.7642688005059957	 -0.09570370506630278	 -10.946874512124062	 -0.03621120107888916	 -0.06861181811203844	 -0.060085816073069044
1718177655	 0.21922062387801705	 0.12072156160529703	 -10.747974572545289	 -0.03702056070129946	 0.12733070849897546	 0.06294628827159873
1718177655	 0.04120724971978925	 0.3094983127070591	 -10.691791497552394	 -0.09436493539299774	 0.21717957182871453	 0.17277410703651738
1718177655	 0.24733917724555357	 0.5685105199538171	 -10.530489174962042	 -0.03308850322033834	 0.21886020956887947	 0.12329968129400427
1718177655	 0.6439832556977868	 0.7524962373867631	 -10.33664534972906	 0.021247793569412615	 0.03197414715468132	 0.02731410002558483
1718177655	 0.7363524734459816	 0.8458252400778233	 -10.515595557212828	 0.023226043722583117	 0.02114040159845517	 -0.10042362687292801
1718177655	 0.9470488684762268	 0.8976080342851579	 -10.417124661588668	 0.04925402419517382	 -0.044364493723301965	 -0.10108901767128431
1718177655	 0.9818645265959203	 0.7727458292111754	 -10.19874611455798	 0.0855825874543514	 -0.19124782301763815	 -0.049774668027095105
1718177655	 0.6900306480582803	 0.6121650988936423	 -9.899350495529173	 0.09234416204735925	 -0.13454104238041847	 -0.0026033081050256587
1718177655	 0.43540374322365966	 0.17011325942501423	 -9.685285135522484	 -0.012699226441691303	 -0.07167240606054157	 0.04185625370725968
1718177655	 0.16300899864407256	 0.17936324526406824	 -9.686865098190307	 -0.05963763935112233	 0.05423256250410317	 0.004874856038146598
1718177655	 0.2787211893884465	 0.2556289397503249	 -9.834703543573617	 -0.07276778086164797	 0.10412886625279844	 -0.011970572043580712
1718177656	 0.45091041483730077	 0.39232210533358153	 -9.891260712575912	 -0.014316783674426896	 0.006878821300295875	 -0.1544735464605222
1718177656	 0.528453782842867	 0.3091644776428118	 -9.980285734462738	 -0.024168513545821543	 -0.18047590232999927	 -0.24230211914257033
1718177656	 0.01215338826351799	 0.53799244943019	 -9.98026235358715	 0.08052702553326993	 -0.037362706161158186	 -0.35293003056154365
1718177656	 -0.37729006549436594	 0.3460456899901852	 -10.01454105528593	 0.07991031232621323	 0.1709219284326377	 -0.26574233095106625
1718177656	 -0.21614896134771405	 -0.00892352465544245	 -9.839525849163532	 -0.013765166030671225	 0.2638010529639666	 -0.11238472388869293
1718177656	 0.18873061040509492	 -0.037441248249774794	 -9.641776833185553	 -0.01586901023667148	 0.13108378490992645	 -0.03817340568649193
1718177656	 0.39357148434016853	 -0.06994013559338637	 -9.678741412967442	 0.06434337009588668	 0.08850987586791766	 -0.1068003913331762
1718177656	 0.471786577594839	 -0.24995447431048376	 -9.795370481094718	 0.05435131452158548	 0.06434113969847374	 -0.30086476519730376
1718177656	 0.737394749040529	 -0.3586218611098826	 -9.84460183725357	 0.005497449005547482	 -0.04077189773516348	 -0.45535956701227615
1718177656	 0.6134777158621698	 -0.11426190060451626	 -9.861335529911518	 0.10724298373921216	 -0.024571784794481393	 -0.5346335835750422
1718177656	 0.7325446055956184	 -0.3213204871216789	 -9.778520468580723	 0.06284052748680896	 -0.05425995977381736	 -0.545454473137225
1718177656	 0.6237751649275421	 -0.4364681210521608	 -9.73650737323761	 0.11093540665633658	 -0.028642499341478566	 -0.5953061190033909
1718177656	 0.5949571763200685	 -0.5583961723703891	 -9.735227270299196	 0.08035213907343579	 0.0736273826824983	 -0.6602365163825583
1718177656	 0.5352938214633614	 -0.3910418562646955	 -9.796265384107828	 0.08424719526000161	 0.13898318675629223	 -0.7195280696276465
1718177656	 0.563216249470599	 -0.24173757611252367	 -9.81655180081129	 0.11110531633388364	 0.19675787002349848	 -0.6771707588060452
1718177656	 0.6990485787071288	 -0.2563186207812279	 -10.04592871171832	 0.1283612935841873	 0.2535126291722316	 -0.6087712612119133
1718177656	 0.8636353297956287	 -0.16512578986864537	 -10.078252772217988	 0.061745468936082	 0.18662787102710957	 -0.6491292704241648
1718177656	 0.9045195672392845	 -0.1168877464629244	 -10.16950482250452	 0.12485829632197315	 0.16446930549321429	 -0.7534566087572014
1718177656	 0.9630982321318239	 -0.4283810415126383	 -10.132418077647685	 0.028526350147842883	 0.20422053009584806	 -0.773726593604067
1718177657	 1.316162678310275	 -0.2145279177508317	 -10.360077663242816	 -0.02812141026231253	 0.21974968872820913	 -0.849367692255315
1718177657	 1.6991497498698531	 0.11109037616262211	 -10.367053347474336	 0.034345003428583744	 0.1622074994241668	 -0.9012953387702252
1718177657	 1.9548251773767171	 0.20469249670663847	 -10.166678074645995	 0.05801588659937256	 0.004162841195362499	 -0.9217247803873593
1718177657	 1.8359305024050174	 0.1358116791741457	 -10.045866752398014	 0.017355912370208868	 -0.029008681910769857	 -0.878057726941657
1718177657	 1.6621891156107187	 0.09895089769344777	 -10.162965191602707	 -0.05575523734092358	 0.02206119162594467	 -0.8352730453441253
1718177657	 1.6445963219054043	 0.1765543435894884	 -10.169647445845603	 -0.05729818133035302	 0.08790611228166148	 -0.8418691627320335
1718177657	 1.7765756655082106	 0.08086111425142735	 -10.171451280397177	 -0.12872760306974929	 0.037987754230188985	 -0.8472182549395122
1718177657	 1.7534465727247297	 0.07488023604380432	 -10.175831687438487	 -0.19653246672673688	 0.02852920264304171	 -0.8463688397098313
1718177657	 1.6600369060128926	 0.04768716805730946	 -10.141302810370922	 -0.25944784984612307	 0.011326168202971	 -0.8632986213384923
1718177657	 1.5486242573596536	 0.22376888003321363	 -10.076939936053753	 -0.32830844049348856	 0.025937849114448335	 -0.8619242970579569
1718177657	 1.4955375409469007	 0.5986586977191269	 -10.2109813267529	 -0.2927104322555901	 0.039296052921636425	 -0.8167659399808376
1718177657	 1.4843315256692469	 0.652270899310708	 -10.22065984020233	 -0.30920954744647167	 0.021598481950705614	 -0.7741022324758227
1718177657	 1.4778453785203396	 0.8776896471764892	 -10.260849227249622	 -0.28927279063100225	 0.02793088397285798	 -0.8272378888611926
1718177657	 1.4742949925623834	 1.236423517293483	 -10.162485883653163	 -0.24311037188865256	 -0.031009833168720437	 -0.8761407835890179
1718177657	 1.3024899806581436	 1.5338193408071994	 -10.12526586780548	 -0.191184106888558	 -0.0036876952860408836	 -0.9032506316425614
1718177657	 1.2587164515137672	 1.7755159273222088	 -9.980535909831524	 -0.08918758378631557	 0.013503960902302192	 -0.8755926384576523
1718177657	 1.266687868784368	 1.88318500553295	 -9.940822323602438	 -0.02056858346171233	 0.01612256293809574	 -0.7941732791892594
1718177657	 1.3197748774580658	 1.7928611760072408	 -9.986227983993292	 0.012611902845963826	 -0.01837400140424333	 -0.7293908204086459
1718177657	 1.1592454389363527	 1.5461021915361284	 -10.046550643008947	 -0.014114125437850272	 0.06168157387586611	 -0.6622167098110867
1718177657	 1.2005036242589353	 1.3708889786235987	 -10.088230560874939	 -0.04129315326189764	 0.0808543862878895	 -0.5733702603156535
1718177658	 1.1816638261672108	 1.4231889285728334	 -10.02787633767724	 -0.04438306094952686	 0.06028616068844866	 -0.49115561456673557
1718177658	 1.0854325992286205	 1.52673142837286	 -10.13203696937561	 -0.04580364933162397	 0.1258123404929804	 -0.4663596540263076
1718177658	 1.2078380588002502	 1.7348638911992311	 -10.031579868370294	 -0.00047661318364583007	 0.11080789117439223	 -0.44689174672074655
1718177658	 1.1918252277627586	 1.9553530006431041	 -10.00566450586915	 0.0005851579990683192	 0.1286947130302868	 -0.41900119299364647
1718177658	 1.152831626371294	 2.42385927792564	 -9.807439104551076	 0.12462072570798127	 0.1797504738938185	 -0.35054859862528115
1718177658	 1.2226219325646757	 2.5679388091668485	 -9.58467722786963	 0.18327035726181942	 0.20175808812817675	 -0.36191260660227187
1718177658	 1.3693497863575816	 2.6701182039201257	 -9.434088022473453	 0.2345394872629369	 0.1786499725076137	 -0.36103669291974483
1718177658	 1.468125217886269	 2.601967335496843	 -9.6529563988477	 0.29322575392652045	 0.10519180042287632	 -0.33546781645194856
1718177658	 1.5155707135416567	 2.2732013912074267	 -9.955295085591077	 0.27196670434031306	 0.06274320559372337	 -0.2395857114754463
1718177658	 1.422856774009019	 1.9432862768828867	 -9.90478771814704	 0.17577379181984176	 -0.06831938221840173	 -0.16900892988736335
1718177658	 1.039059774306044	 2.1378877886153758	 -9.805164145356416	 0.25566865781173254	 0.00717550732855506	 -0.16179470945520452
1718177658	 1.0694009173601866	 1.8927550901718437	 -9.758763044187425	 0.23213250562496648	 0.10890577830007357	 -0.18251728188457228
1718177658	 1.3163320435278116	 1.7171870724722742	 -9.515673834270238	 0.2468692906092449	 0.05137517790796229	 -0.2015062030233257
1718177658	 1.3441660991318523	 1.5564970365613697	 -9.355761504733563	 0.2558290300436257	 0.0259167997388637	 -0.22889541667521837
1718177658	 1.4638507554374633	 1.3635969219192863	 -9.399235904800891	 0.2558849564265174	 -0.05514695470319267	 -0.23869108908626144
1718177658	 1.3708615060947835	 1.0257338442649693	 -9.381795525178312	 0.2164718867032964	 -0.1287988426289089	 -0.28425309816085276
1718177658	 1.3012443645112215	 0.6862688113067299	 -9.561021626994012	 0.1402498860392748	 -0.11751517057067608	 -0.36671991197548753
1718177658	 1.1106890594296157	 0.7418826350443065	 -9.951791461384296	 0.09718799433940102	 -0.0471778903883753	 -0.35819147147964503
1718177658	 1.0891853758908807	 0.7991944218061864	 -10.59110994014144	 0.06813439239118209	 -0.028416076553362188	 -0.33931848107209417
1718177659	 1.2220149065822363	 0.8869875638104975	 -10.5941669896245	 0.1389945551251955	 -0.11828647195663346	 -0.2276745736972556
1718177659	 1.0471451733451336	 0.6040456514544784	 -10.410492676228284	 0.16638153837967523	 -0.1081619157957224	 -0.240917641560379
1718177659	 0.928535087468475	 0.48042398449350143	 -10.547178443956374	 0.11339233920950281	 -0.08403471661690533	 -0.3361098047222258
1718177659	 0.669308324155584	 0.5321237035272642	 -10.582760629469156	 0.0932214738894586	 -0.0009360998878098075	 -0.19712725046669247
1718177659	 0.6430410794768482	 0.5384383300341665	 -10.465447086209059	 0.09079398591109455	 -0.0644325360581339	 -0.06922840232222983
1718177659	 0.5468973481586202	 0.3900742533415556	 -10.252220515114068	 0.053406757861961626	 0.014403696352720551	 -0.02223714126962024
1718177659	 0.7098175177417695	 0.3809520586006343	 -10.081616111171245	 0.07234760062066072	 -0.005686213551523108	 -0.00447867025440258
1718177659	 0.7908505179613828	 0.2502531832624227	 -9.893590616828202	 0.08652418966964096	 -0.015170456840959893	 -0.04228666631249772
1718177659	 0.8461804101910442	 0.22282887750305233	 -10.031196422010659	 0.10484081243596069	 0.07266543225200486	 -0.10500826701187782
1718177659	 1.371337891434878	 0.13052309864619746	 -10.286598585534096	 0.07418579762881747	 -0.03437159758878171	 -0.058066653107652196
1718177659	 1.6058774458020924	 0.035280485452734864	 -10.639379757791756	 0.04018300623911971	 -0.18438702070688964	 -0.028354524242667732
1718177659	 1.4533286307707427	 0.04092013530752156	 -11.108248146384954	 0.03443033693557476	 -0.20156943645445827	 0.059086714545369
1718177659	 1.116394066138193	 0.14155771201285533	 -11.298624587768316	 -0.03401226017572975	 -0.1821399785371353	 0.19774507055007723
1718177659	 0.7453536721557378	 0.1977410153346136	 -11.240139665573835	 -0.0004017188325034226	 -0.18073377954730302	 0.18122285243673925
1718177659	 0.42213962637241925	 0.25510551866441966	 -10.972676477378606	 0.02768561099765088	 -0.09519335326195892	 0.10737877998767098
1718177659	 0.39573783206120133	 0.1823051439348608	 -11.030454128086566	 -0.013976950795467874	 -0.08884413587423623	 0.09294936540507975
1718177659	 0.36712460877820846	 0.6707720400325954	 -10.59498648931384	 0.03278872490835249	 -0.11274770442289232	 0.074203640808121
1718177659	 0.21166598898107183	 0.8911926142849027	 -10.292566554027795	 -0.04024504540895094	 -0.23562274468108346	 0.06422929525506882
1718177659	 -0.10728533959016204	 0.9482017648383975	 -10.115223781740665	 -0.031259283977887596	 -0.2165083886549873	 0.09536111576587711
1718177660	 -0.31790227617602795	 0.9514977376438677	 -10.018714541578293	 0.01977655519233356	 -0.16623569702047977	 0.14045992622549797
1718177660	 -0.3610935484530404	 0.948517698919773	 -9.862311681467293	 0.008579640808096575	 -0.1634422074845548	 0.1564623119388093
1718177660	 -0.08291257602167315	 0.8084802826762199	 -9.886372940534352	 0.05604523477768719	 -0.2450476884236307	 0.05600064347418518
1718177660	 -0.21934397626304997	 0.7247185881450772	 -9.807707984620333	 0.04556246680540367	 -0.32626136843208553	 -0.02200828002463076
1718177660	 -0.7841917176593095	 0.7054173830866813	 -9.74444985667467	 0.10177367477565165	 -0.06592296167862914	 -0.06446453560310689
1718177660	 -0.8866179267805069	 0.35527046832274645	 -9.616160745891928	 0.051776046069857265	 0.12934122867441716	 -0.07381411188680488
1718177660	 -0.4332782389696687	 0.15352467432618142	 -9.606560558375715	 0.026061763087137278	 -0.010105679966387815	 -0.008302476478835781
1718177660	 -0.22380627116784452	 0.3592164660021662	 -10.864344697475433	 0.11256928927461382	 -0.08417957593544882	 -0.05441686989629346
1718177660	 -0.379526848103106	 0.23746654772982	 -11.463120737963914	 0.22375927748640517	 -0.18902867746030239	 -0.16841502831951885
1718177660	 -1.1820413542427122	 0.05251445121644065	 -11.655455327677727	 0.15019432928671242	 0.12215179228515287	 -0.3094562227424403
1718177660	 -1.1608875070549547	 0.0503369975795038	 -11.570380504721403	 0.030935331237225472	 0.30403728913537426	 -0.18341809612329157
1718177660	 -0.767873254738748	 0.1536231662645936	 -11.506846482443809	 0.02977267832908094	 0.2155723707556085	 0.04129764318504795
1718177660	 -0.4674410957364365	 0.05781481808030512	 -11.458178020864725	 -0.0039064497826786495	 0.2094999307065507	 0.10212062640904013
1718177660	 -0.2911066967742517	 0.12013798956368117	 -11.617350345689058	 0.030413187296596412	 0.3205850070161498	 -0.00010314170629781443
1718177660	 0.20898633970934896	 0.09409041551761328	 -11.505126819044351	 0.03497388811405994	 0.3624074219328086	 -0.018373187891754097
1718177660	 0.9559241027187555	 -0.18389171900656073	 -11.174300288963318	 0.008496531976883338	 0.09916385180877965	 -0.06493332685636649
1718177660	 1.034832658130303	 -0.6821825649064034	 -10.41594626545906	 0.00886895164864165	 -0.1142070667659853	 -0.17271997828736152
1718177660	 0.29617550620483235	 -0.4016868401261046	 -10.341790311402082	 0.05727320587275512	 0.1304133590726342	 -0.23198824551766825
1718177660	 0.009020573555439478	 -0.5202248471472412	 -10.040509024757146	 0.09652504199791782	 0.3554849008637975	 -0.30335508713263687
1718177660	 0.4676223340548575	 -0.7877933223478496	 -9.3245082883358	 0.049980542862925845	 0.24312075821690388	 -0.171656211879443
1718177661	 0.6289784326590597	 -1.027951154988259	 -9.580530045062304	 0.0030726176864153926	 0.15799406232928198	 0.1525248948461544
1718177661	 0.7495674904584885	 -0.8503478320688008	 -10.88307511690855	 0.012983980780058822	 0.22274429686070554	 0.2662272426512992
1718177661	 1.0333224727630614	 -0.5710397096378729	 -11.808200249803065	 0.08923810894562142	 0.28650080612087964	 0.2918546920183204
1718177661	 1.8632725367084144	 -0.6014891353720798	 -11.889762096202373	 0.0010195711976137957	 -0.054714407407893365	 0.2913882726429067
1718177661	 1.5499341709144412	 -0.04668120588515885	 -12.301883930701017	 0.08949166684853219	 0.07246254098883285	 0.02179066439346306
1718177661	 1.9854320586949585	 -0.2639000340872444	 -12.296680516839027	 0.17101582150581982	 -0.023354187544097165	 -0.1472882379709475
1718177661	 1.961752054030448	 -0.3868968288818374	 -11.076863997083901	 0.029891055839534962	 -0.319320105366903	 -0.08856973041341719
1718177661	 1.0793339900925756	 -0.29589177562631663	 -10.19986839658618	 -0.11406287323771433	 -0.26960521282271255	 0.19685369388847088
1718177661	 0.27475831363946196	 -0.1450216435300652	 -9.176379920095204	 -0.07040577335658625	 0.01662524915801041	 0.29898916742058823
1718177661	 0.5938409952390938	 -0.21102224771743638	 -9.187249689155816	 -0.1757145364855875	 -0.1603413225798074	 0.22425375992180563
1718177661	 0.5480206531001255	 0.18700749467322603	 -10.046390484011173	 -0.13545746107864995	 -0.1472651683380047	 0.11153332793295141
1718177661	 0.5063708381114528	 0.41389523737933487	 -11.240113946610688	 -0.04884035205410045	 -0.10274463834195932	 0.05123581552035628
1718177661	 0.6451340331681072	 0.5068981864538044	 -11.570416745078562	 -0.0282261453139637	 -0.11184845479131345	 0.053105229769915815
1718177661	 0.670842621050775	 0.3106702425632626	 -11.371678133541344	 -0.013302473000188981	 -0.2382901335393932	 0.060476543416875694
1718177661	 0.35108989470247176	 0.32345976417269556	 -11.056665258663893	 -0.045594408093727806	 -0.15828234951728307	 0.09567428686531361
1718177661	 0.024117866358812898	 -0.09496337156039662	 -10.858017832541465	 -0.08456615873480904	 0.03742628497099462	 0.02252383888334568
1718177661	 0.05815153008822817	 -0.00505600189382385	 -10.42411437434554	 -0.08965196417901973	 0.15224073555784293	 -0.01722290203792162
1718177661	 0.37546453056763857	 -0.2695824453715235	 -10.148326425397396	 -0.16779933876500616	 0.06707011415699157	 -0.10143150018746849
1718177661	 0.550869649323076	 0.06524909170032478	 -9.623868251529336	 -0.11237917286229579	 -0.024230136596732454	 -0.15248190143930643
1718177662	 0.4532104719405994	 0.17010160551983863	 -9.405142498496174	 -0.022293130070349953	 -0.11094382058090556	 -0.1560269516796086
1718177662	 0.15231966418428344	 0.09298048151433468	 -9.640052493610977	 0.011883669768260064	 0.03792395487732477	 -0.08684001560778913
1718177662	 0.3997503921708092	 0.015619605352648067	 -9.704162269949913	 0.023282357096070683	 0.003205750773784135	 -0.052257587206835626
1718177662	 0.5361922681404278	 -0.026617501154821366	 -9.441253676319121	 0.050225328978996155	 -0.1548639825210846	 0.030563435355158118
1718177662	 0.2032508099983446	 -0.22540376949235796	 -9.404975909757614	 0.03857855987326625	 -0.13909067859579055	 0.003228717417294166
1718177662	 -0.1846441448090598	 -0.21892527592694386	 -9.69840531385839	 0.03258960992438244	 0.03382034196848672	 0.03038172662562525
1718177662	 -0.27969717654744164	 -0.1518554168065544	 -9.971749376785755	 0.027891868662888317	 0.16554172717467555	 0.07129770761754582
1718177662	 -0.022718968479475004	 -0.14919588787425309	 -10.111512067741154	 0.0049481605874483305	 0.16904964296252795	 0.18709740297204736
1718177662	 0.3365293082999065	 -0.09975808589048683	 -10.110002832221983	 0.07264828815248747	 0.10338753375148285	 0.14452678959188756
1718177662	 0.46485959134325383	 -0.24354480819758026	 -10.235708940774202	 0.03444080440701554	 0.1013240416374838	 0.10770103080194898
1718177662	 0.49743174485247577	 -0.2315247913896106	 -10.069157611614465	 -0.050600784758426894	 0.11212737930360721	 0.07367750004526222
1718177662	 0.5099856310751288	 -0.006961242430924903	 -10.116841738331317	 -0.037962192044913426	 0.10804838190950097	 0.08649333029050967
1718177662	 0.6936219505485147	 0.1206535561366938	 -9.89728947134614	 -0.10031209035752413	 -0.07993676916716749	 0.12893130992600513
1718177662	 0.314361717492342	 0.370396433523111	 -9.930265858274698	 -0.03351056848003466	 0.09985854570150524	 0.08130046577047778
1718177662	 0.5242526778912171	 0.5332394462168216	 -9.935034387850761	 -0.08566075955472365	 0.15169854924941642	 0.11848506887254771
1718177662	 0.8407491789225489	 0.6313262378942222	 -9.798221194350718	 -0.08686518248009038	 0.08422922724502198	 0.11071770988197942
1718177662	 0.9478497365303337	 0.7995889010164886	 -9.684684831541777	 0.0027550154406260777	 0.008787060485419015	 0.08031504623287802
1718177662	 0.888509220419824	 0.7202184271816164	 -9.634802902519702	 0.04029067700975377	 0.037070594840279324	 -0.06916586380969421
1718177662	 0.7776596124768257	 0.5922671335184946	 -9.783302442160249	 0.010406625491945177	 0.08588220972174214	 -0.1173648184823843
1718177663	 0.8367007072493433	 0.626692221418023	 -10.027607457607983	 0.035147975625567054	 0.07721718235149219	 -0.10351395067947755
1718177663	 0.7877073976300656	 0.43136579294446853	 -10.139155276948213	 0.055073430651160465	 0.10043942274714354	 -0.1365778862387599
1718177663	 0.7487000599741935	 0.19126188244838266	 -10.349275698721408	 0.004881062451843244	 0.1440717885196475	 -0.23427105726981373
1718177663	 0.9240469822689891	 0.21771692305048926	 -10.457692818820476	 0.01229330139461708	 0.20017565445320848	 -0.24633278016289162
1718177663	 1.2792854845508932	 0.08343401521304622	 -10.401057323884963	 -0.009649845616009827	 0.04820734779131304	 -0.2082874933307785
1718177663	 1.2616606882721184	 0.09294776655482127	 -10.173199000847339	 0.04227646723776056	 0.008545831665968829	 -0.17630436008801278
1718177663	 1.1450973788574337	 0.0067796096743928495	 -9.897647198742627	 0.07747350328403392	 0.03058567275026028	 -0.2034287390142539
1718177663	 1.2739932233616709	 -0.09028985419087111	 -9.856250189471245	 0.033132004292269104	 0.06310758012630585	 -0.11439540218932434
1718177663	 1.5894845294058322	 -0.08840378471594304	 -9.826383458995819	 0.0510747025967849	 -0.08349454432405319	 -0.04161666075531502
1718177663	 1.5350268169008194	 -0.24845318463575095	 -9.86244845958948	 0.05489734160764659	 -0.1478181071593324	 -0.0384231269729573
1718177663	 1.1679041808839887	 -0.3025747605215758	 -10.032325718301534	 0.05713196262762925	 -0.05748198521864972	 -0.05702941011971518
1718177663	 1.0252456954218447	 -0.2951770149530843	 -10.089730444043875	 0.05278434798688569	 -0.01777431370281173	 0.0015795941834857033
1718177663	 0.9470693998076021	 -0.2679562689417973	 -10.014557421898841	 0.026207571156819116	 -0.0017745200202625524	 0.05735206456934589
1718177663	 0.9264793239824474	 -0.2662863447018899	 -10.058937830895184	 0.017567554614275303	 -0.0022984614645902525	 0.1013746250534385
1718177663	 0.7916667297150939	 -0.3213943195428699	 -10.053375520592928	 -0.005213659022777816	 0.06614880190025706	 0.10285044073864112
1718177663	 0.6996887032415717	 -0.18759322213931007	 -10.168789367711543	 0.014967842296869904	 0.1273020462277435	 0.08997271696518457
1718177663	 0.9332434112899005	 -0.19179525867272168	 -10.176576368325948	 0.028848713314229363	 0.11153147204256676	 0.17536106842990673
1718177663	 1.0859431790992617	 -0.3291321472533047	 -10.223758975261449	 -0.01749579490646528	 -0.04042518328955959	 0.14148990377708612
1718177663	 0.880985473851487	 -0.14504129807860588	 -10.29861869367361	 -0.00457687119870735	 0.06620698364769688	 0.0903421639874058
1718177663	 0.9936922539684921	 -0.04051893409548793	 -9.905034386384486	 -0.03045767040917914	 -0.007513868186833432	 0.17746608088977578
1718177664	 0.7983572403296828	 0.010741695976332994	 -9.637298226466774	 -0.07338092376836827	 0.046121776407401546	 0.1496700693813735
1718177664	 0.8715382118746637	 0.19491192938853055	 -9.678827922207116	 -0.07266008096268949	 0.20620646596547698	 0.07572046917411085
1718177664	 1.4502107910111546	 0.3477781032733619	 -9.717523271304369	 -0.06148779145586002	 0.1236427047647849	 0.07350656671517117
1718177664	 1.957949739138037	 0.5221749948343262	 -9.91640450618267	 0.015698801993799093	 -0.0436046148017075	 -0.019982317676055808
1718177664	 1.839951574614644	 0.3979805694866925	 -10.149482609695195	 -0.04288702188479644	 0.013888676368007455	 -0.06200436564474053
1718177664	 1.9797857233710585	 0.4801856456929818	 -10.213244595509767	 -0.04610984211676663	 -0.023966030079191455	 -0.00674952690996713
1718177664	 1.9565680755212902	 0.5180158293282613	 -9.97591701785922	 0.04931568885797676	 -0.2490172798312051	 0.00217757969845885
1718177664	 1.5347862861432133	 0.34837526544891295	 -9.951281758296489	 0.008877497690967824	 -0.22573144814214974	 -0.06746549787151666
1718177664	 1.1499724375478924	 0.14101185076627878	 -10.002629668217898	 -0.03808244625169811	 -0.19556920136045522	 -0.10563510023107682
1718177664	 0.8532550978176295	 0.20441709556505083	 -10.035358217865229	 0.0024168007441184697	 -0.10285984502624046	 -0.13810711494857544
1718177664	 0.7169057224370539	 0.20134678474161774	 -9.998906263780594	 0.03643983345847246	 -0.09163026010527148	 -0.1831334208475189
1718177664	 0.7440467542756348	 0.19781546881031245	 -10.193471389025449	 0.1166044027673826	 -0.06919214588070192	 -0.21023681073541883
1718177664	 0.8763155092790722	 -0.03540296790479915	 -10.278873544239998	 0.14817272370323328	 -0.13033019354521808	 -0.1790257944716943
1718177664	 0.8353582796644419	 -0.40436091817356645	 -10.420798966187238	 0.10987516893686242	 -0.17796001404820141	 -0.1840643288065561
1718177664	 0.6658687050957233	 -0.5459468059681356	 -10.454772547459601	 0.07190112998628734	 -0.1159284924827205	 -0.12850398076196667
1718177664	 0.6279559577435254	 -0.6339233417153358	 -10.307134008562564	 0.020816898266227	 -0.14063078465418338	 -0.018556440422481366
1718177664	 0.47314405661839987	 -0.6254672096677124	 -10.313873545950651	 0.011556381834451537	 -0.15489825407536256	 0.039197819728115334
1718177664	 0.15707211940838023	 -0.6455014782410115	 -10.258487758815289	 -0.05666565976551319	 -0.004236600354584686	 0.10668674093365708
1718177664	 0.29424720502337437	 -0.6487096996977925	 -9.980567474013567	 -0.10032898478568932	 0.04194018489348921	 0.171517627634218
1718177665	 0.5749253554321825	 -0.5382096723774448	 -9.867916077345608	 -0.11072994377823697	 -0.10288403818026816	 0.1597539291118768
1718177665	 0.4417392663881182	 -0.24703197445990516	 -10.158322918754816	 -0.05348117656967253	 -0.06669203266717358	 0.08126235759975443
1718177665	 0.3532984010647982	 -0.05692847283298615	 -10.318812755918502	 0.05676754232196553	 -0.020022381605704687	 0.07876963881944025
1718177665	 0.4355712087450549	 -0.28863110044095663	 -10.329566789644955	 0.004697537363223159	 -0.07985706574916845	 0.11610122344654734
1718177665	 0.11143010211153886	 -0.3363608563978225	 -10.836868661528825	 -0.06774859605658129	 0.011265756058118234	 0.1305367965891594
1718177665	 -0.2231360620223917	 0.010097834840044378	 -10.952179632794856	 -0.017778472811420375	 0.20610336834177728	 0.13622681502806022
1718177665	 -0.0005586887621087953	 0.023568283351766875	 -10.734567978483438	 -0.04685285989970953	 0.2666907658390275	 0.18175884689563132
1718177665	 0.6864174990624189	 0.2903902373342775	 -10.323670132821798	 -0.1253719535172222	 -0.09683483421172129	 0.06273622727942953
1718177665	 0.45906953669972717	 0.8682062909729779	 -10.436757582819462	 0.017419940588479257	 -0.1598137337231059	 0.0009964280936741144
1718177665	 0.1995431876520626	 1.0821598611682652	 -10.703202533882855	 0.09669868010099099	 0.08061171405593444	 -0.032722472534452963
1718177665	 0.5303258237924426	 0.9459268056437372	 -10.696927106875181	 0.12077084339140591	 -0.005907297533891718	 -0.020576912081902633
1718177665	 0.2761992331627756	 0.6536190259840339	 -10.548000281733273	 0.15188573618453538	 0.035063803090363735	 -0.002381550270080448
1718177665	 0.1759741142824292	 0.416327542560175	 -10.672801550400257	 0.10051218530155155	 0.1619138026902015	 0.019545424018633708
1718177665	 0.4049810958985239	 0.17739643870312718	 -10.412108294731379	 0.07208185043338443	 0.15394096417677677	 -0.01967148724554613
1718177665	 0.5369350858643651	 0.16903404935356228	 -10.276045627337693	 0.10533780822963991	 0.09991664422516099	 -0.15828043537024958
1718177665	 0.6136549721252172	 0.08583323097503744	 -10.720815347462892	 0.1587819418930251	 0.17730044891472968	 -0.1741341168261936
1718177665	 1.0276158586192876	 -0.24380130370929837	 -11.09549738588333	 0.08024159292106228	 0.09557080641220722	 -0.19295234598382974
1718177665	 1.1325899986576289	 -0.22505488298945128	 -11.576139214378594	 0.10873222342078447	 0.025666862070559765	 -0.15105453031880803
1718177665	 1.348218443262577	 -0.7508628640312701	 -11.262014812773465	 0.17852016004922916	 -0.058785515187270244	 -0.1753939584693692
1718177666	 1.4144164240524173	 -1.3113131924524903	 -10.531916577416657	 0.06426350855269794	 -0.3267410037444088	 -0.2273359194751384
1718177666	 0.7557878993432968	 -1.2769466663397848	 -10.069177485358715	 0.09031727175359197	 -0.20799987193304997	 -0.1918305393089043
1718177666	 0.4682072578033432	 -1.3342762810193	 -9.759431737229228	 -0.026280231762091644	 -0.04853881147848702	 -0.06598820496414688
1718177666	 0.47552094181757415	 -1.3383540518522261	 -10.095440053862333	 -0.06317155424911661	 -0.04676319459475793	 0.03641654328250188
1718177666	 0.4670617044974118	 -1.536511648631096	 -10.483805749720334	 -0.12577847673524437	 -0.043489903298941535	 0.10467231756274274
1718177666	 0.5970973301539197	 -1.2571610387653112	 -11.006951671946048	 -0.1377108948350205	 -0.11792227635518672	 0.2084527091869043
1718177666	 0.8990674393132329	 -0.9521110472366213	 -11.176058530807495	 -0.10245408746703168	 -0.2698074133284768	 0.2186847738320705
1718177666	 0.5930724585520103	 -0.8708167657323181	 -11.33768818565607	 -0.09057607275489883	 -0.34927277801556506	 0.18131300043963844
1718177666	 -0.31609445956908166	 -0.7948775815203786	 -11.364959638941288	 -0.09864781441330636	 -0.01213210940845083	 0.056024408025724934
1718177666	 -0.5203105526693165	 -0.4726366916181519	 -11.360613134169578	 -0.11420763268771694	 0.20313267872482116	 0.002889449679843811
1718177666	 -0.20314923105370253	 0.04269830112829804	 -11.2399035187304	 -0.021826049065852886	 0.08631898478527195	 0.027104426024011526
1718177666	 -0.11761612466955557	 0.2196007275030948	 -11.381039836126565	 0.03494836337948721	 0.2034211822946608	 -0.053705597825782145
1718177666	 0.11171078221644275	 0.3327316695826128	 -10.693466737288237	 0.053551101193043925	 0.10885759172909995	 -0.058835170658032614
1718177666	 0.03199067295999266	 0.260680944176577	 -9.909591319036483	 -0.006433590700305066	 0.144302717875671	 -0.06220881319267455
1718177666	 0.3564293560342863	 0.1715758427908644	 -9.627574704831838	 0.038638984501686624	 0.08698644785585145	 -0.11415050788233475
1718177666	 0.5341295999895781	 -0.092553616138082	 -10.097902060061692	 -0.0007725489624953854	 0.04515103338412165	 -0.07220064406275878
1718177666	 0.612976999798417	 -0.16506887204963713	 -10.785097557759284	 -0.07670862677420634	 0.017133848427782893	 -0.04003664057008463
1718177666	 0.6837491566359997	 -0.04287266218136065	 -11.194668538731335	 -0.11344117492599214	 -0.06685834291605983	 0.06798983267826123
1718177666	 0.4569294559311121	 0.15789514449536798	 -11.26920560106039	 -0.06295844310526141	 -0.0729188403521043	 0.04240041658055773
1718177667	 0.2832047280106693	 0.2128926629655063	 -11.263258675354718	 0.006156275007787005	 -0.04455690295087099	 -0.17296106094504093
1718177667	 -0.1381317835516296	 0.13664312502960674	 -11.122736105942726	 0.0033298304138182342	 0.14135529762873944	 -0.3269583509788729
1718177667	 0.06754254553290083	 -0.06588553100691642	 -10.873494803136586	 -0.10427319293912392	 0.16136475874196804	 -0.22083714062507254
1718177667	 0.37598055379837747	 0.13785731399180368	 -10.705267065197228	 -0.10912442382556908	 0.11650541639861572	 -0.1119796820540271
1718177667	 0.4848561947872862	 0.24422042417051268	 -10.65849245454073	 -0.09884553747948793	 0.15681013742193045	 -0.1784880689580937
1718177667	 0.8068695595439523	 0.42250944606550034	 -10.567204163897037	 -0.053312070001641704	 0.17113361644978536	 -0.28465024205841083
1718177667	 1.282106825581938	 0.42024398535154756	 -10.371620801520347	 -0.04350872851889703	 0.0011316621914790098	 -0.34044107005058977
1718177667	 1.1969995616607367	 0.43651634410805995	 -10.465798968386649	 0.017116991450320532	 -0.04870664888381086	 -0.32890765173875636
1718177667	 0.9754957222163677	 0.07686898500849493	 -10.175842208832501	 0.02984094263796024	 -0.035038644540440894	 -0.2700067010017988
1718177667	 0.9379159331455826	 -0.2585407538101077	 -9.94456677082777	 -0.07536968924665538	 -0.06918434365094583	 -0.22019843137188747
1718177667	 0.854994342700392	 -0.15084297009469008	 -9.996307479459047	 -0.05871743397071589	 -0.05938330330583056	 -0.19762096724327952
1718177667	 0.6172207748480141	 -0.1093039311372675	 -9.883666604185104	 -0.03986281521349732	 0.03892355158654	 -0.1942467088526355
1718177667	 0.5683299026899039	 -0.09398898270344361	 -9.735525376462936	 -0.05205990991373529	 0.033060669025757806	 -0.10677022271145266
1718177667	 0.610825484320335	 -0.2039591591970995	 -9.559730418139695	 -0.11748387842786764	 0.01195573636377383	 -0.04429580497312394
1718177667	 0.6149213387992233	 0.006254399061022558	 -9.548628009366988	 -0.03610943919692371	 0.055280241754561935	 -0.08823759261359228
1718177667	 0.7434693197138607	 -0.12109702558787538	 -9.637660630038381	 -0.028035329821859523	 0.12645642600261608	 -0.1752076037720909
1718177667	 0.9354371219418942	 -0.2183720624909736	 -9.747499891895055	 -0.05137863169500099	 0.12895403834143326	 -0.24936339090437454
1718177667	 1.1992469752613455	 -0.36385932337194676	 -9.727540222927928	 -0.13725408780666626	 0.0750578164382503	 -0.2468442901845118
1718177667	 1.2844640562325715	 -0.2718829408662394	 -9.836985517030953	 -0.2090444302916063	 0.025969187030338	 -0.1695219878713671
1718177667	 1.1183031876951455	 -0.24331905488399788	 -9.95715503424406	 -0.2403774859122837	 0.06364307108130433	 -0.14505258081485325
1718177668	 1.0543229560200125	 0.009294165190786588	 -9.951847575485706	 -0.2901626859092522	 0.16745923644904623	 -0.20826921738779786
1718177668	 1.2390452440991997	 0.3154407449007034	 -9.964749142634869	 -0.31302682268445037	 0.09083753691729576	 -0.29826738418614945
1718177668	 1.2171342218685894	 0.6272758665248751	 -9.995892468917368	 -0.29339160228340516	 0.051262788348771744	 -0.3619535859935455
1718177668	 1.023392322640121	 0.7961362763445824	 -9.929361018389463	 -0.30415210466787035	 -0.01320944441406385	 -0.3398791430605831
1718177668	 0.634683804693818	 1.1436031947769223	 -9.916831207162142	 -0.254844143138244	 0.19574948072149678	 -0.37814444028825034
1718177668	 0.8781157636340707	 1.4720118500612676	 -9.771945181843638	 -0.17856034049217573	 0.26113987259994814	 -0.46313756200244793
1718177668	 1.2255055982422083	 1.6507487070553004	 -9.881526085025072	 -0.1672656579273111	 0.21397690423605567	 -0.5673166288417943
1718177668	 1.3953471280537544	 1.8228436418168246	 -9.885096344727277	 -0.05059596610132953	 0.19288711518187962	 -0.6262926640767353
1718177668	 1.5775791336871683	 1.744418486008048	 -9.827905553996562	 -0.04836357131757061	 0.15640565318661787	 -0.7103604704701849
1718177668	 1.6696046525642274	 1.7806680493883789	 -9.829661457753181	 -0.05528474416127985	 0.11743163053623165	 -0.7966910316838203
1718177668	 1.6408977596484124	 1.7701406640246509	 -9.845545255583524	 -0.06930661187330489	 0.10520583195286967	 -0.800397219814829
1718177668	 1.579574253027141	 1.9231329850398002	 -9.821482827472686	 -0.08724635573348638	 0.14159957607972695	 -0.7387257326615916
1718177668	 1.506818521156907	 2.069947201941907	 -9.972097751832008	 -0.09020518596121326	 0.16618518018355233	 -0.6876122144919188
1718177668	 1.469762755960226	 2.058372061090916	 -10.054781880259513	 -0.09633284499099817	 0.18780801757466456	 -0.7419594760152204
1718177668	 1.386131263680011	 2.0904249034337696	 -10.043414098548888	 -0.1309647416091999	 0.24013410627816406	 -0.8052148782267824
1718177668	 1.4196372274406253	 2.314466736923158	 -10.038280827313661	 -0.09647938542997977	 0.2858635116720237	 -0.7700828566006206
1718177668	 1.4578380710192025	 2.309703468044102	 -10.172539660155772	 -0.020597462114782878	 0.2377051702059573	 -0.7230024961647911
1718177668	 1.4163719420343637	 2.008067376612127	 -10.141085368227959	 -0.02272015546757655	 0.26101270665789683	 -0.8257842023801729
1718177668	 1.4134450948022306	 1.9284651398479937	 -10.015310286092758	 0.014412512872344935	 0.20700999160062433	 -0.8661149141912512
1718177669	 1.4009699363715946	 1.9183781917281448	 -9.966185897439718	 -0.05510975783290483	 0.22107489433138935	 -0.8654899368624368
1718177669	 1.4182311600349842	 2.2764508945226667	 -9.854292041140795	 -0.03658403114793264	 0.2338618958578367	 -0.8277345684044924
1718177669	 1.5904587812654674	 2.5601804501250385	 -9.719285020279884	 0.04178312496820179	 0.1825875061135663	 -0.767283008767593
1718177669	 1.652234707829356	 2.5805501611977815	 -9.769569684883951	 0.0696557772593495	 0.18770448718728772	 -0.7217739133749103
1718177669	 1.7824287754505872	 2.5998633489549157	 -9.861425546282529	 0.09690497521693126	 0.13543275193716106	 -0.664655033526136
1718177669	 1.8149938050992787	 2.6306813888058063	 -9.908625688874722	 0.10323697360373091	 0.12240805496104575	 -0.5617614079659435
1718177669	 1.710121079608798	 2.786743764916062	 -9.947951152569056	 0.1665482522639142	 0.08685449654621644	 -0.5033086838852031
1718177669	 1.6047316367678344	 2.7521049977332352	 -9.948429291474818	 0.22123634847247542	 0.11045607094963594	 -0.42568745838445393
1718177669	 1.5898936947286129	 2.503755675330758	 -10.046982020163535	 0.14606789433568915	 0.12944696449207171	 -0.483120191767694
1718177669	 1.6822066522449255	 2.7796096752524373	 -9.99253380613923	 0.18693383494684604	 0.010879551926975508	 -0.48165115882089266
1718177669	 1.4797214015252886	 2.80065158649832	 -9.915589682668447	 0.19995509478067947	 -0.02966139772681306	 -0.39875857212698146
1718177669	 1.158258181464672	 2.7392411322459576	 -9.709232412821054	 0.17851952754847025	 0.0829530238058992	 -0.4197967457902804
1718177669	 1.3593481784336268	 2.7837296777918934	 -9.756226803708076	 0.20486117014082345	 0.08450092793285892	 -0.5114110518961467
1718177669	 1.6223586250036954	 2.9462793700948358	 -9.926105231463909	 0.2699103445046084	 -0.06704308307192726	 -0.5863449814094378
1718177669	 1.4905926318906246	 2.911160418179631	 -10.065468109446764	 0.3150734619821763	 -0.0749445988024083	 -0.6066722242197401
1718177669	 1.4085826033324003	 2.791667192792892	 -9.905939226269721	 0.335983038254338	 -0.09171957587033	 -0.5724679813383347
1718177669	 1.2713405168958007	 2.6312203179880975	 -9.770323133599758	 0.3335183159549833	 -0.1289268075192872	 -0.5118196140968784
1718177669	 0.9996510162424296	 2.3856723167419434	 -9.902607451498508	 0.35308426087817285	 -0.04610948841568435	 -0.4871765855820482
1718177669	 1.0445712312038988	 2.116895415599644	 -9.834224235624074	 0.3492220447967991	 -0.07969205795250284	 -0.44102227283626644
1718177670	 0.865307281595841	 1.8401454897515475	 -9.848617502635717	 0.3411531327470497	 -0.1283691582317814	 -0.43694740334184984
1718177670	 0.48237289007157086	 1.426907510704547	 -9.993040002095698	 0.29635506807590445	 -0.023246294149840727	 -0.43962078431261226
1718177670	 0.13753010046458802	 1.2053577132266013	 -10.25010922204852	 0.2655241015444911	 0.14675144456372843	 -0.35147834145134144
1718177670	 -0.0033879996121220753	 1.0146759322211145	 -9.89889223036766	 0.269981584063768	 0.19097271847703298	 -0.2736053473590388
1718177670	 0.08530681421444751	 0.8417357788071036	 -9.496320899024605	 0.31407071525273417	 0.30979294617276715	 -0.33020910527396446
1718177670	 0.8224817738913	 0.6879913242504	 -9.28347718976736	 0.3907836363741983	 0.08512749483594889	 -0.4480134701718879
1718177670	 1.0694616345714778	 0.4327691204037517	 -9.48694984408915	 0.463367459383549	 -0.09301920680466708	 -0.5805058675613846
1718177670	 0.6927778278745711	 0.08055667881160043	 -9.97082700124383	 0.39893087864950955	 0.08538692001563625	 -0.4615536136546097
1718177670	 0.6891101722124964	 -0.26182991328230126	 -10.102109448623656	 0.34233021665935115	 0.21445697231205607	 -0.16273319077859164
1718177670	 0.942905338930711	 -0.7693082559779286	 -10.03815223249793	 0.1738352102833458	 0.27497903913881533	 -0.03491378805839741
1718177670	 1.442992530195415	 -0.9674789314340799	 -9.822585235756636	 0.06249651781418717	 0.15472479906461434	 -0.040020004135650045
1718177670	 1.3716482725583017	 -1.0089788896232843	 -9.731640059462189	 -0.004620302570718958	 0.12203940688715154	 -0.10745715182512497
1718177670	 1.4221999175354838	 -0.9020732700657099	 -9.645490300750732	 -0.03282213301587077	 0.24261390872719135	 -0.08639700708283286
1718177670	 1.8266139541357755	 -0.7424051245484501	 -9.472453116703033	 -0.10265820211982943	 0.1099750541224972	 0.08325664081492505
1718177670	 2.2401075153790413	 -0.585304966355674	 -9.625395607227086	 -0.12335903649679941	 -0.09234659218185394	 0.17016445883959191
1718177670	 1.846575961190462	 -0.4634073101757094	 -10.033532171481847	 -0.14881414605177887	 0.04355204233731365	 0.1473485086353674
1718177670	 1.9175044776335357	 -0.19084955705413595	 -10.225115066045522	 -0.09776629977011173	 0.06908493284088021	 0.10308965086117908
1718177670	 1.9894436324238776	 -0.09758624001042916	 -10.229543403881788	 -0.1599493884911318	 -0.06548478429433784	 0.10876706089679407
1718177670	 1.7531055042020975	 0.14543132030949926	 -10.241994889175892	 -0.12545468628096118	 -0.09157136263328869	 0.06755645730631048
1718177671	 1.5017064388401806	 0.38452301242258397	 -10.522787514543532	 -0.12231124905542137	 0.045561280866480744	 0.14212881276735295
1718177671	 1.511944631998986	 0.7068322913859039	 -10.688277351951598	 -0.1341561906357668	 0.020272294306873405	 0.1750355802104286
1718177671	 1.557758288668841	 0.8913719163745641	 -10.413837310481071	 -0.1283079055267096	 -0.0352031113825101	 0.10384950897682754
1718177671	 1.518125804851949	 1.1531455876912922	 -10.097028784358502	 -0.03991091023830847	 -0.1564680876694234	 0.07158387259905324
1718177671	 1.092202750950679	 1.08148429999426	 -10.305012194103002	 -0.0805285402061399	 -0.014602806135204104	 0.0975510913868981
1718177671	 1.120177968591079	 1.1830909363608806	 -10.685352404415607	 -0.018526708725624154	 0.0566109900617609	 0.19623592373935655
1718177671	 1.4052650032170115	 1.079923334287852	 -10.98091239080429	 -0.047301843892361674	 -0.035657583983721326	 0.23848497706264613
1718177671	 1.3427844355151057	 1.1274648376636207	 -11.10118712195754	 0.008396779949303058	 0.004944096145894057	 0.12976669362569254
1718177671	 1.2987149921640753	 1.023454720351845	 -10.854158819025754	 0.022544740536713598	 0.06239761050801515	 -0.03236965986607171
1718177671	 1.3179295418523251	 1.0565847634721546	 -10.564136593019962	 0.009364500388775447	 0.03919370847318252	 -0.08863136594789571
1718177671	 1.1668437120456248	 1.185079991286248	 -10.77048451051712	 0.07326677402614475	 0.07619083335688928	 -0.09359042156897544
1718177671	 1.2959063644841313	 0.9216155173383652	 -11.185848103415966	 0.08651204731954587	 0.15779114609897477	 -0.05475097177742231
1718177671	 1.7991480011917649	 0.6907805896427482	 -11.688763723039626	 0.137985658158111	 0.09162162147648553	 0.011956567561317178
1718177671	 2.18221573677212	 0.23849318736381828	 -11.623279735738038	 0.15353042124998426	 -0.05599251667167124	 -0.016373495130619253
1718177671	 2.1932930111035702	 -0.36190807970631866	 -10.948375564336777	 0.13467690520790454	 -0.22265018740568485	 -0.14508442223463652
1718177671	 1.627253119046986	 -0.4943599361917004	 -10.071742367410659	 0.11371083663111947	 -0.2522895058625855	 -0.1873559293348668
1718177671	 0.9065976886875927	 -0.7141082737382501	 -9.45224268784523	 0.02046906029953823	 -0.06314410704513197	 -0.11863968201858363
1718177671	 0.7338200323589146	 -0.51710667859409	 -9.315969592571259	 0.01962977132378356	 0.02333397040635318	 0.06559979124153723
1718177671	 0.7812934389345347	 -0.6800923146288842	 -9.14609876359999	 -0.049363247089380696	 0.027499585034319644	 0.2225690109267079
1718177671	 1.0341274324703962	 -0.6352479413826018	 -8.984808131447434	 -0.07664754051670265	 0.008886388071700564	 0.24540823050095698
1718177672	 1.3740572333961725	 -0.4276045041821897	 -9.476099948772788	 -0.06778089520717691	 -0.15348523073523695	 0.05781889174130156
1718177672	 1.267777125325799	 -0.17803891959143803	 -9.87755951948166	 -0.015338718687582461	 -0.15856654209510815	 0.022444797094429966
1718177672	 1.014377314600721	 0.07283932763361371	 -10.656951654839515	 -0.012408173103167365	 -0.02618253120078857	 -0.03578427138901424
1718177672	 1.1560447431989014	 0.1633059905629605	 -11.31426288640499	 -0.03804678486022627	 -0.004441569091466414	 0.05857011955054248
1718177672	 1.4644558817237614	 0.3545282351206988	 -12.372611079353094	 0.07570328346270143	 -0.08634239563572942	 0.14222716663536095
1718177672	 1.5432232750989496	 0.2514264648254961	 -13.224640580898523	 0.12577860989329886	 -0.08071713362320955	 0.045224403472153334
1718177672	 1.5630959964349864	 0.32319979806225746	 -14.260707968455552	 0.17213889318226303	 0.03475919155711831	 -0.15801882972741974
1718177672	 1.8122015440322459	 0.46539629203584043	 -13.847978231191634	 0.18632583526998095	 -0.036421366100788444	 -0.20792150841797438
1718177672	 1.7389654812991617	 0.3609126754608005	 -12.119088738226889	 0.2119698794595447	 -0.18789060885797065	 -0.15027442385649656
1718177672	 1.243915042092651	 0.033336584843345916	 -11.047351486873627	 0.15201864456768713	 -0.11318264024079429	 0.04427573555759667
1718177672	 0.6751319888077676	 -0.13208012796300464	 -10.374213740622997	 0.06802992989742374	 0.09362462654422615	 0.1997820558888516
1718177672	 0.7563380075067281	 -0.2467119304589927	 -9.39300957763195	 0.0520225257899333	 0.006281183504695526	 0.14918855321153038
1718177672	 0.7278503102995455	 -0.35257176729068157	 -9.322162601992487	 -0.04059986168993356	 -0.04250239068317255	 -0.0012712139131937634
1718177672	 0.9102871908552944	 -0.1946023154500872	 -9.700767951336502	 -0.0694244650739193	 -0.11300400038829882	 -0.07074859709028511
1718177672	 0.6995785939306021	 -0.06935733986990526	 -10.53068323622942	 -0.09346014305740014	 -0.08588877607830486	 -0.006050063774265981
1718177672	 0.6351032722149044	 0.10222424767515621	 -10.593341644716261	 -0.12570510664721268	 -0.007986913735904709	 0.13091067943907128
1718177672	 0.7454739375345408	 0.34652116201482713	 -10.368315914756058	 -0.055385028821078146	 -0.04567375781064456	 0.12127378968564578
1718177672	 0.7042460012197495	 0.27259247737508263	 -10.037607458096742	 -0.01779633055488612	 0.04603728762181878	 -0.0005031051021246977
1718177672	 0.5516787372162565	 0.13683524093506857	 -10.043625695472954	 -0.06251520987608816	 0.21362105598015066	 -0.01527961731732872
1718177673	 0.781578393355757	 0.02275438228615094	 -9.790991827619075	 -0.05913520488315446	 0.19062983648668527	 -0.052333312527956345
1718177673	 0.9696382283598184	 0.2565274777589366	 -10.02871337302327	 0.007682516503903253	 0.08549354632778029	 -0.1367424363046132
1718177673	 0.9002700200360267	 0.1270419693990145	 -10.297134008073806	 0.08090287246448577	 0.1061443465657704	 -0.2076096522543261
1718177673	 0.9806827694654464	 -0.0814989280977752	 -10.458181479120254	 0.0427967989804916	 0.13818323142148126	 -0.21129042384168142
1718177673	 1.2068225981473921	 -0.2809944315500557	 -10.532906757497788	 0.0733296079831138	 0.07873866292701127	 -0.11794693556240517
1718177673	 1.5203709534302352	 -0.42775501856878395	 -10.619889459902048	 0.0496686076366827	 -0.02176760932468246	 -0.06239880476931649
1718177673	 1.535795755446702	 -0.521446096037887	 -10.512557212430238	 0.07494707887117344	 -0.11181310965022104	 -0.016843746961289197
1718177673	 1.2935079250402748	 -0.7513442908726632	 -10.423245774817467	 -0.0044846706892336646	 -0.055568137790777905	 -0.00048707389315414713
1718177673	 1.0214354164186865	 -0.7420842220310121	 -10.298617524629831	 -0.1225596554060985	 0.0380753763912418	 0.032017949912829316
1718177673	 1.0913649118870496	 -0.42864349184110756	 -10.037543160688877	 -0.14359278570808312	 0.060377532080973594	 0.08457511361397443
1718177673	 1.261673986145109	 -0.19686879907734692	 -9.821378782576321	 -0.08395393961209185	 0.0006040782761896785	 0.06345007512605766
1718177673	 1.3064191368006168	 0.06066441709145438	 -9.943197820562125	 -0.009794032902497	 0.051821065975847215	 -0.04959647342184439
1718177673	 1.4174872097998856	 0.20463607207797466	 -9.975852720451355	 0.03745926239543037	 0.0753895547639117	 -0.08732508543321185
1718177673	 1.4939790594585238	 0.28347419260181483	 -10.00585155287385	 0.10216458521178325	 0.01081452606359364	 -0.01933397526986522
1718177673	 1.5257289733320474	 0.0405330996181583	 -9.771970900806783	 0.09055014022378417	 0.0177969443302936	 0.046753702922185315
1718177673	 1.4976708997137844	 -0.06703287441113498	 -9.738992175790667	 0.017226251795230237	 0.007470556449011417	 0.08096383388631335
1718177673	 1.347864222997427	 -0.09999150192071683	 -9.650648121905327	 -0.051168990982941316	 0.012403780967963336	 0.1389625306130873
1718177673	 1.1466848672445862	 -0.07889768695766106	 -9.399791785117984	 -0.08883428217820294	 0.0033500896836029014	 0.15337788869854996
1718177673	 0.9912306861605494	 -0.02536256462370511	 -9.528563126459717	 -0.09727272447395757	 0.0897428528735971	 0.05012079158383214
1718177673	 1.0585612511768936	 0.16383973211348055	 -9.867845934718847	 -0.06883671374371722	 0.1415030531349684	 -0.04031086709976794
1718177674	 1.3256599899739026	 0.21518305719131603	 -9.998813909322022	 -0.019959499795059794	 0.07780647332169947	 -0.04028375695210877
1718177674	 1.5335358476907015	 0.09363924681716598	 -10.130458760273456	 -0.11621667980218069	 0.0326431040921848	 -0.0005013872461881503
1718177674	 1.6270568658225237	 0.1321927854240872	 -10.064638088363408	 -0.13139963581520983	 0.020689626213851033	 0.024963248668777024
1718177674	 1.7235504700243471	 0.3106705713568255	 -9.989798243695496	 -0.09239509500320701	 -0.03876111124361278	 -0.056672117931156625
1718177674	 1.6285507576420901	 0.38343916270863265	 -9.949444021475314	 -0.02288582073213629	 -0.1086327377093132	 -0.09634795010780596
1718177674	 1.3018554821468888	 0.28869663995783773	 -10.05420787976384	 -0.04940966931613214	 -0.053468838643684895	 -0.13900336020154958
1718177674	 1.0714294275131075	 0.30242179844956846	 -10.288216542124747	 -0.12016053841572222	 0.10633717607344896	 -0.08401101448320361
1718177674	 1.3048241226941346	 0.5603305379664525	 -10.151478167426585	 -0.04457237841351787	 0.0856461204911066	 0.006384534440787966
1718177674	 1.5394333812966943	 0.25534486211193724	 -10.185242489862441	 -0.014193822614065495	 0.027477052194784052	 0.025522691428829403
1718177674	 1.5846892579533158	 -0.07936940525579265	 -9.921987859272956	 -0.03942524952401889	 0.010800710915438855	 -0.09725181865940045
1718177674	 1.5450152730822562	 -0.02468579787330236	 -9.635783730250596	 -0.07639929229121524	 -0.008028762815721782	 -0.23525130028804467
1718177674	 1.3521877852849662	 0.35340197103712706	 -9.846250188982486	 -0.04291848047517301	 0.18654557934942612	 -0.16774063270772674
1718177674	 1.7536143305070697	 0.5598343154147267	 -9.995595531797408	 0.029800183789714416	 0.09468319978801902	 -0.00808205776659104
1718177674	 1.9822068130381405	 0.34635979744065554	 -10.074289713805914	 0.028108803939621285	 0.02592383006802259	 0.05093338445025337
1718177674	 1.9971347714483736	 0.15651421153098344	 -10.044581973284483	 0.02824901937101396	 0.04197435657922629	 0.001152525483883961
1718177674	 2.009336958156526	 0.15310020183641462	 -10.002691627538203	 0.05117362238652453	 0.019726518972759097	 0.05944654922053074
1718177674	 1.8611663582094014	 0.06433496339693665	 -10.09107835152149	 0.016065802236768824	 -0.011124677179965889	 0.1323968648077684
1718177674	 1.6873207803882657	 0.14453414314091204	 -10.26786348992586	 -0.035445958384411703	 0.07260137490541005	 0.18729181373162312
1718177674	 1.7424737816810607	 0.4341832615179941	 -10.395703103375434	 0.026785067236229792	 0.08332644892499874	 0.1477556060974996
1718177675	 1.7477394471243022	 0.28812320571774613	 -10.074002129036188	 0.020141470679512465	 -0.06850281992204854	 0.0419556645173253
1718177675	 1.4117838835917413	 0.45188331499006595	 -10.10001335312724	 0.022516498545591148	 0.10586099454816439	 -0.04756984528299691
1718177675	 1.6374655932426452	 0.5937982520759105	 -9.988368503153323	 0.01295338979763114	 0.10647536916688885	 0.0385733667091406
1718177675	 1.880999478187412	 0.5758909490613267	 -10.01502387036681	 -0.02190168908259494	 0.08046260200202522	 0.06468603154320661
1718177675	 2.202439609633386	 0.5866763277741148	 -10.282104781246185	 -0.016196470859831943	 0.04944042466553335	 -0.0008973131181534189
1718177675	 2.547406016486883	 0.6547279370740056	 -10.331765760993957	 8.422540343723711e-05	 -0.11441585027306911	 0.024658054569043145
1718177675	 2.5367452140018343	 0.7309984721321612	 -10.397769972777366	 0.013828415066263306	 -0.21357932757482048	 0.017092867996211996
1718177675	 2.2149371260263027	 0.6496825633179396	 -10.146462969613074	 0.004227405686891458	 -0.1667494540842697	 0.034150819453819536
1718177675	 1.9868756816320121	 0.6507639288138598	 -9.912072029936313	 0.030261611818678872	 -0.1706975238212849	 -0.017125951530972426
1718177675	 1.7280913283243775	 0.49984695276804264	 -9.795152454429864	 0.019650777006881563	 -0.08335605994736907	 -0.05933006088997499
1718177675	 1.7117324603281914	 0.42713001853823657	 -9.882705650198458	 0.007539582775663559	 -0.0744956564216482	 -0.08247734162331902
1718177675	 1.7267006046183406	 0.3096484617674723	 -10.02244963645339	 -0.03810171671889836	 -0.1419899122717485	 -0.1014500757360718
1718177675	 1.4324416178256272	 0.41772783781215544	 -10.43234210446477	 -0.052834977175921616	 -0.03599245152366357	 -0.12705575376118158
1718177675	 1.4907467995390296	 0.4827720819896087	 -10.338822109246253	 -0.007370584398552015	 -0.0767034502548375	 0.002069044570804975
1718177675	 1.3328623225681484	 0.2602956163871102	 -10.25286933441162	 -0.08049439348753805	 -0.09832149395598759	 -0.0054015367153045
1718177675	 1.172016657704115	 0.37832539989147335	 -10.065207412683963	 0.023448908693930716	 -0.023135132141465137	 -0.11048191193458812
1718177675	 1.282622520019114	 0.2788244123009033	 -9.763591194996238	 0.04082997961406243	 -0.1309236457046286	 -0.18706690977756596
1718177675	 1.0730464342556894	 0.3345515054209158	 -9.939892933797836	 0.041192926858748195	 -0.04234118205224948	 -0.15268132227068293
1718177675	 1.2651207655981183	 0.3657719155276194	 -10.033072737276553	 0.05457257327390063	 -0.082166084670916	 -0.06778385797388961
1718177675	 1.231363895816356	 0.26077969184331595	 -10.049574959266184	 0.09932497305472944	 -0.09945099883093904	 0.004971133992890816
1718177676	 1.2320995166145265	 0.14998120216620153	 -9.973453842616081	 0.09162732230569398	 -0.09530110309518784	 0.0013299057964224741
1718177676	 1.2053199384994804	 0.1057434987093322	 -10.002524454277752	 0.07790198093629244	 -0.07976679291059317	 0.023937671574771315
1718177676	 1.023384723855555	 -0.08967254427643492	 -9.927621481245756	 0.07431297189324716	 -0.03454766790694417	 0.06555410970646396
1718177676	 1.0442311125293373	 -0.1316432709157001	 -9.816918880558013	 0.029246566694546585	 -0.04494566621337371	 0.09319962764614154
1718177676	 0.9220678642157465	 -0.03492675609464058	 -9.817752408772707	 0.03370062039392004	 -0.05021307843798179	 0.12008601983947044
1718177676	 0.7415148246452212	 0.04127371625185478	 -10.056880313843488	 0.03807846815481981	 0.040076384088164864	 0.11714348482866348
1718177676	 1.016119555158168	 -0.0017646715849637983	 -10.434057091689109	 0.022375544503114898	 0.062401913177651314	 0.17008979046052883
1718177676	 1.4055518573343753	 0.01099072627587011	 -10.561833576774596	 -0.018933209057105726	 -0.1402601225647148	 0.18128313974591592
1718177676	 1.2512108981892467	 0.1866671933355741	 -10.333761318725347	 -0.012350532310323964	 -0.25799068461092944	 0.11801994778816538
1718177676	 0.6834578455392271	 0.2903371554401703	 -9.944445190274715	 -0.04944179369678122	 -0.087797655046268	 0.10829166999745811
1718177676	 0.518525532416068	 0.41631011650133876	 -9.75590414762497	 -0.11715978836796181	 0.06885121964927975	 0.16203584204715438
1718177676	 0.681448405412957	 0.6466926607869565	 -9.83408278132677	 -0.058507368817357484	 0.015002121133228966	 0.16965554540003458
1718177676	 0.7734820345312357	 0.7756585017874836	 -10.181146160459518	 0.012217247339549302	 0.035927657646579785	 0.061341500688230605
1718177676	 1.0167212473783642	 0.6758558461029082	 -10.394183346462249	 0.029812174256403576	 -0.006203464453797797	 -0.027135179292818137
1718177676	 1.2139561032891273	 0.6673975951634347	 -10.509991161334513	 0.04269228655246281	 -0.11455227069990842	 -0.07318751169420126
1718177676	 1.0417626035239547	 0.5518676839170977	 -10.694257010883092	 0.05686121485211986	 -0.07237341663847767	 -0.044504567674261725
1718177676	 0.8327415943600237	 0.32605259367749095	 -10.649717611932754	 0.030853461920246152	 -0.08244569994061751	 -0.03970763198454056
1718177676	 0.4666936749026179	 0.16249182463586329	 -10.540535937201977	 -0.023002051068961436	 0.003548834061659544	 -0.16665767489520283
1718177676	 0.13546753277843818	 0.18442608161158858	 -10.400545282709597	 0.0001796369124397186	 0.1582249916853055	 -0.1441943605088184
1718177677	 0.29318856281591577	 0.02694264602253679	 -10.299738637614249	 0.010556435585343239	 0.2289331170493998	 -0.06917426941188477
1718177677	 0.6281911547388881	 -0.2294246773052029	 -10.19990229885578	 0.027282100480611846	 0.13241740443767566	 -0.06262830267625406
1718177677	 0.8670913885336369	 -0.3946569414893165	 -10.127637857633829	 0.017073380106875882	 0.03523114115298318	 -0.12311112948882667
1718177677	 0.862001006592065	 -0.33615415484458205	 -10.063824433892965	 0.03155882510208886	 0.06946859032423056	 -0.1215484364954386
1718177677	 1.076676022929698	 -0.44335488489121194	 -10.068750784379244	 -0.0025386078546989444	 0.029823286712170854	 -0.07355640111706928
1718177677	 1.1713399274863303	 -0.402553393827565	 -10.124024343311786	 -0.05514996324298662	 0.005826865387633471	 0.05354719799757127
1718177677	 1.2335517612494526	 -0.07209315804196521	 -10.07558150718212	 0.004071590477324456	 -0.06635666994571615	 0.1457272427427544
1718177677	 0.9194585585001855	 -0.09737499927938915	 -10.004866048967838	 0.035534038276276866	 -0.027954665169154545	 0.15858410231354586
1718177677	 0.8332087004151195	 -0.0799769244285766	 -10.119892942595481	 0.07756926889235749	 0.04574560906461706	 0.024961981586664635
1718177677	 0.9639929159492253	 -0.18833675224930047	 -10.425316151350737	 0.06181620915253723	 -0.05834785379044014	 0.12428259579570368
1718177677	 0.8074694981984794	 -0.1856102133622393	 -11.209216119521855	 0.02724571504221864	 0.030243002980561942	 0.16165472705040723
1718177677	 0.9430049999129027	 -0.03954734911697451	 -12.67118602964878	 0.1337056004240822	 0.18132711519341585	 0.0929781275448526
1718177677	 1.2079039636433124	 0.05821321998047642	 -13.155953413641452	 0.18316882424526015	 0.19858859353584618	 0.02838565826028644
1718177677	 1.538959918566048	 0.04949983436930924	 -12.761122905683516	 0.1774716069490377	 0.07719615170125897	 -0.08287646624693783
1718177677	 1.3876841922104357	 0.10232677646786906	 -10.749560964953899	 0.1743974868132456	 -0.04186990656903554	 -0.00034553611385498037
1718177677	 1.1886232899162918	 -0.3493973385056481	 -9.78156582762599	 -0.017294898933516233	 0.07805994800082618	 0.04093030172456355
1718177677	 1.057060345094651	 -0.2403611549264751	 -9.285042539387941	 -0.019093352423592756	 0.25261084953761714	 0.0507626883079469
1718177677	 1.765109830250591	 -0.16290124568697065	 -9.320856195569037	 -0.021248126464548878	 0.027173058598135312	 -0.08233577796662449
1718177677	 1.840561230945587	 0.0443927250552224	 -10.054342319798469	 -0.008929999415145214	 -0.11073412161219703	 -0.25543672977030024
1718177678	 1.9276414023749529	 0.36372747715320436	 -10.947143392193317	 0.026659345226832037	 -0.3159423182878146	 -0.191645965600605
1718177678	 1.0687514404755085	 0.4804431275853887	 -11.229771416294573	 0.10567040376027718	 -0.1260968160316713	 -0.24983536962856384
1718177678	 0.656484863743931	 -0.07846225468246265	 -11.384635814791917	 0.04629317995187257	 0.02466607526123241	 -0.359047544612051
1718177678	 0.5950067510828375	 -0.3616487346503883	 -11.484054804921149	 0.03538438110658203	 0.02988981164396319	 -0.2044563696551314
1718177678	 0.5048797593034804	 -0.8220115260310471	 -12.59522273390889	 -0.09852372775126549	 0.17169917199677734	 -0.09113998047096629
1718177678	 0.8818922134328633	 -0.8913035273134707	 -12.891147461956738	 -0.12711280366515815	 0.23305692212884663	 -0.006143316544459437
1718177678	 1.4415690732635558	 -0.7007197998549789	 -12.397377271819114	 -0.09862260592911308	 0.08855915267046253	 -0.09223976613262813
1718177678	 1.7844060668729245	 -0.5051065537966788	 -11.548970636945961	 -0.06918101053839402	 -0.055092667828847086	 -0.20902046184179557
1718177678	 1.5703106039889156	 -0.29869094135817137	 -10.618195515465736	 -0.0014475123165394318	 -0.14556633787864315	 -0.2217029342954573
1718177678	 1.1885437949392943	 -0.4127588172279298	 -10.16252796922922	 -0.029281266851312476	 -0.02750083131048602	 -0.25555174503987804
1718177678	 1.2522682982876896	 -0.311806443518959	 -9.8195550742805	 0.07980697335353976	 -0.048926492831796904	 -0.2560741906667243
1718177678	 1.318401543278247	 -0.6335214829161763	 -10.136578704458474	 0.024663717947548767	 -0.19697197153038404	 -0.17232925926593326
1718177678	 1.0321773943811654	 -0.7091543045926839	 -9.993576593190431	 -0.0714676505846065	 -0.16697470757821994	 -0.077081153076438
1718177678	 0.83724087854065	 -0.4743065610591322	 -9.939871891009807	 -0.08820454444894008	 -0.04350197074763096	 -0.05319021789820297
1718177678	 0.9784037916827947	 -0.2716835093040019	 -10.019527027004957	 -0.07262038321769049	 0.00875202223203036	 -0.02118073600540226
1718177678	 0.9847321909867226	 -0.038171211058716285	 -9.865505509072541	 -0.05730328294831621	 0.06250491509399933	 -0.023495068765762357
1718177678	 1.2917010217487812	 -0.06265242170405108	 -9.732678170338273	 -0.05043722089441479	 0.03289217207194526	 -0.03663373655296545
1718177678	 1.3521858855888247	 0.2974088656583801	 -9.936455945086479	 0.02506357077927815	 -0.02436893722379602	 -0.020920942560470432
1718177678	 1.0375170749086886	 -0.07437776184780523	 -9.710853876543045	 0.030217908929071752	 -0.011702457260539685	 -0.058318521567746445
1718177679	 0.7837780222918838	 -0.21092207527859136	 -9.945953256750107	 -0.12851134606685644	 0.07712165809214241	 -0.05731548355506013
1718177679	 0.7932477152962237	 0.2215053738143295	 -9.627242696398497	 -0.07726327168310738	 0.07567991422413599	 -0.04310350359190626
1718177679	 0.8575080790869891	 0.5291777862684801	 -9.727283033296466	 -0.006853353261926042	 0.04874741605443509	 -0.0859828439214335
1718177679	 0.9478430145286023	 0.47818789600450545	 -10.166779781454801	 -0.02374096799994454	 0.12206619662324204	 -0.1415879746842283
1718177679	 1.1629100258585066	 0.5421067894138395	 -10.318826784443855	 -0.010611727386881407	 0.07733144860701341	 -0.21676027375983836
1718177679	 1.2077872053958474	 0.8310627013623714	 -10.230327832257746	 0.08064575258361702	 0.04342774761581261	 -0.23329201267407337
1718177679	 1.2023245560757816	 0.6779220579177141	 -10.110860910356044	 0.09603635193788829	 0.024047019304654287	 -0.2681855815141322
1718177679	 1.1422969344839453	 0.25505377021087333	 -9.948133523398637	 0.02367996288563031	 0.02207748268167539	 -0.20598573984537985
1718177679	 1.183443183864653	 0.05232873308572452	 -9.93557916225195	 -0.02416783319138681	 0.09038345962905885	 -0.20122658775362418
1718177679	 1.3024338665567339	 -0.112187578548491	 -10.091867456072569	 -0.0852298268008352	 0.0720209555905841	 -0.22882635757920125
1718177679	 1.3431181975141167	 -0.17942019961569458	 -10.110053101104498	 -0.14201760914708533	 0.07054222707293918	 -0.36474867342612455
1718177679	 1.2810029559932647	 -0.03314472694949945	 -10.025864413332938	 -0.1097441247664737	 0.1441176281799105	 -0.4727624259190761
1718177679	 1.3554213603787124	 -0.11163139683729968	 -9.939066419845819	 -0.15105136781501355	 0.1610449130950495	 -0.6096199440722943
1718177679	 1.354308722961694	 -0.08403156098108738	 -9.803229962423444	 -0.13281815192508373	 0.27722631433516504	 -0.6775774900835275
1718177679	 1.775078997209668	 -0.3078865666614845	 -9.861986687296628	 -0.23108220482530967	 0.18868218355772626	 -0.6552319040620814
1718177679	 1.973620040348172	 -0.06367931249979883	 -9.523851295506953	 -0.22131601027858241	 0.05042323929869187	 -0.6027428631893826
1718177679	 1.844722150017321	 0.24668887837696818	 -9.519318328252433	 -0.1840967195033142	 0.010438246368700664	 -0.5484420405375894
1718177679	 1.734548541639745	 0.5547858729187399	 -9.826016379249095	 -0.1816832464101867	 0.10585399542792452	 -0.46984786242209337
1718177679	 1.9834511140108106	 0.617754443333298	 -9.952109441292285	 -0.0965964896165376	 0.06861290834360968	 -0.5705685482698629
1718177680	 2.1913735873483122	 0.5577434440826997	 -9.979595998632908	 -0.04258594320118458	 -0.003361053116781836	 -0.6917798618608111
1718177680	 2.0673618616238234	 0.6243090526085346	 -9.857101253342629	 0.04946321133761034	 -0.02801393714816562	 -0.7790270831216517
1718177680	 1.8211374224208294	 0.5286969804815947	 -9.888852482390403	 0.029367351452954688	 0.04899146147882723	 -0.7480707649266797
1718177680	 1.6260973731406032	 0.5553404380615801	 -10.028805727481842	 -0.006127740693123026	 0.11451791592184639	 -0.6770748850068024
