Time	Linear acceleration X	Linear acceleration Y	Linear acceleration Z	Angular velocity X	Angular velocity Y	Angular velocity Z
1718178556	0.301247841	0.2429924167	-10.33154481	0.0001616812347	8.41E-04	-0.001530935057
1718178556	0.3073197631	0.2426890682	-10.33775828	-0.0003394213764	5.38E-04	1.60E-03
1718178556	0.3027307731	0.2435169886	-10.35586209	-0.001055282458	1.13E-03	0.0006371326176
1718178556	0.3049075874	0.2520573101	-10.3388677	-2.90E-06	1.75E-03	-6.28E-03
1718178556	0.3078107249	0.2448448031	-10.34302248	-0.0005756161972	2.20E-03	-0.001742410854
1718178556	0.3006945363	0.2414253136	-10.33212816	-0.000463964859	4.37E-04	4.47E-04
1718178557	0.2982134418	0.2456294325	-10.3412771	0.0003659041272	3.18E-04	-2.25E-03
1718178557	0.3035287185	0.2476795334	-10.33204633	-0.002173138799	-0.0009649546791	0.001756796085
1718178557	0.2991927899	0.2478258465	-10.33902552	0.001443505872	3.08E-04	2.67E-03
1718178557	0.3033696372	0.2527156461	-10.34068557	-0.001159978434	-1.10E-03	-7.57E-04
1718178557	0.3098931938	0.2424881022	-10.34720065	-0.0009907161463	-0.00114148897	-7.67E-04
1718178557	0.2967351128	0.2432913814	-10.33237133	-0.0006256629498	-0.0003735936798	1.57E-04
1718178557	0.3100497726	0.2480762045	-10.33734795	0.002146646328	5.25E-05	6.59E-04
1718178557	0.3144314948	0.2547198621	-10.33601874	-0.001692440433	0.0004417478797	-2.26E-03
1718178557	0.2968297141	0.2445415641	-10.34284245	0.0008411842674	0.0001903004474	2.04E-03
1718178557	0.298093907	0.2383565188	-10.33136361	-0.0005567007314	-1.07E-03	-7.45E-04
1718178557	0.296088449	0.2427103119	-10.34397759	0.001068731812	0.002350915595	-2.02E-03
1718178557	0.3084336792	0.2455825976	-10.33826214	-0.000965409224	-2.99E-03	3.16E-03
1718178557	0.299143343	0.2521800414	-10.33650156	0.001101115162	0.0003077720865	9.44E-05
1718178557	0.3058799578	0.2486506617	-10.32749992	0.001192236623	-0.0008198804741	0.001048387433
1718178557	0.3009583931	0.2476652857	-10.33183941	0.001260467642	0.0007198965252	-3.26E-05
1718178557	0.2985340338	0.2423204175	-10.33416932	0.0008423436787	-1.91E-04	-1.68E-04
1718178557	0.301473229	0.2519860167	-10.33451535	0.004908808741	-8.45E-05	4.81E-04
1718178557	0.2721750374	0.2444656494	-10.32832527	-0.003363916535	0.005197148464	-3.80E-03
1718178557	0.3493796567	0.2177761424	-10.31643375	0.0007638992806	-0.002465301485	-7.78E-05
1718178557	0.3375282927	0.2489323647	-10.32674939	0.002213026789	-0.01606074431	5.18E-03
1718178558	0.1662366189	0.2647010483	-10.35287051	-0.007102468575	0.01989663879	9.49E-03
1718178558	0.3899802914	0.1966504254	-10.34076155	-0.002428300451	0.004966463578	-2.13E-03
1718178558	0.4068151429	0.2723340091	-10.34584572	-0.008632732901	-0.03199699	-1.22E-03
1718178558	0.2781787165	0.2099934709	-10.35799209	0.01428702701	-0.004024788802	7.25E-03
1718178558	0.4106104801	0.2436144759	-10.40038162	0.000926183839	-0.02977967121	-0.02051392624
1718178558	0.5007072959	0.2218008314	-10.42742511	-0.03079818468	-0.06847766137	-2.81E-04
1718178558	0.3144480075	0.2243310805	-10.36820836	-0.02586177841	-7.97E-02	-6.15E-02
1718178558	0.2555477825	0.2942240799	-10.40042253	0.01715361408	-0.07219927919	-0.0520282183
1718178558	0.2611101842	0.2936272465	-10.42613565	0.008460422737	-3.94E-02	-0.1162772834
1718178558	0.4635294022	0.1857201217	-10.40182655	0.001424126563	-1.50E-01	-0.1858297216
1718178558	0.573838437	0.3001989896	-10.76351233	0.07000606617	-0.2917486982	-0.1873853573
1718178558	0.1382814851	0.2055425011	-10.87500988	-0.05218219062	-0.280799644	-0.06483669572
1718178558	-0.4701924037	0.2262656288	-10.81932599	-0.1078795292	-0.1197175299	0.001211516323
1718178558	-0.9951243326	0.5886054692	-10.80675526	0.0482295727	0.1203375554	0.08273929681
1718178558	-0.8638155817	0.4697517838	-10.76666524	-0.03115786956	0.2667611732	0.05432587301
1718178558	-0.387992917	0.32509701	-10.67099421	-0.09012205372	0.2029681287	-0.04479597992
1718178558	0.1004586262	0.3501312057	-10.57693645	-0.07163631191	-0.004047003051	1.16E-02
1718178558	0.02825417843	0.4525226723	-10.43053242	-0.08749857373	0.004381050316	0.05388936426
1718178558	-0.02506953193	0.5350436096	-10.42716207	0.0160269076	-0.006476388531	-0.01304836686
1718178559	0.3548125685	0.3763135121	-10.42283778	-0.09448125728	-0.01993940541	0.02108463126
1718178559	0.7252822864	0.4732129571	-10.42396006	-0.0997292742	-0.1449520631	-0.04490457863
1718178559	0.5578071935	0.5037975901	-10.41372041	-0.08254779056	-0.2071667519	-0.04135525069
1718178559	0.06828763741	0.6026576312	-10.5190571	0.01857776236	-0.2190710986	-0.124177118
1718178559	-0.4272764047	0.7887566144	-10.52531849	0.1115306564	-0.1243581047	-0.03069948127
1718178559	-0.7282380675	0.80920867	-10.39988477	0.1092152459	-0.07993637802	0.02393828119
1718178559	-0.7871723409	0.7034094773	-10.25659391	0.08969271054	0.04950887207	0.02759452049
1718178559	-0.6974203199	0.6112999334	-10.41513495	0.07893949024	0.05468032727	-0.004190742229
1718178559	-0.6354360844	0.4993486479	-10.3002425	0.1054044622	0.06813733019	0.02449211883
1718178559	-0.3915069165	0.1285386194	-10.06359413	-0.07773222938	0.07083678101	0.1120556071
1718178559	-0.1796123247	0.2284861361	-10.03117772	-0.01693076367	0.05717483536	0.01488967644
1718178559	0.0559291596	0.2122543468	-10.14313236	0.04152665423	-0.0253264331	-0.05048513699
1718178559	0.1222299751	0.04389398632	-10.4527162	0.05682464216	-0.1278571988	-0.03880675949
1718178559	-0.1139258736	-0.07558375837	-10.81569494	0.01778484775	-0.2738057502	-0.005993163153
1718178559	-0.7860664255	0.009488911445	-10.76555816	-0.01416612782	-0.04380460988	0.04181659757
1718178559	-1.02427707	0.1860533906	-10.69916583	-0.004299935735	0.1448642454	-0.01208499434
1718178559	-0.352861471	0.2106267639	-10.84259581	-0.02698805629	0.01987498396	-0.05543410173
1718178559	0.118778556	0.2614674549	-10.8359194	-0.05738652754	-0.07953764454	-0.01843756773
1718178559	0.2852873795	0.1880260423	-10.86606787	-0.03554687554	-0.2914146046	-0.01977393156
1718178559	-0.1618518097	0.02545490082	-10.77266595	-0.1602770072	-0.4019156497	0.05979096253
1718178560	-0.9289306627	0.1547164231	-10.49803769	-0.2791503484	-0.19889266	0.1089698273
1718178560	-1.455072113	0.4753427722	-10.21114967	-0.1054145406	0.002555606833	-0.01610451274
1718178560	-1.245945087	0.6626428019	-9.981826534	-0.02830549087	-0.0440785368	0.01969006904
1718178560	-1.20030496	0.6522546788	-9.810991829	-0.02819118508	0.01638062949	0.05648847633
1718178560	-1.08370804	0.673475746	-9.801385211	0.05215285007	0.06146091433	-0.06293541508
1718178560	-0.7066848457	0.7866774701	-9.785772632	0.1079318436	-0.008245941002	-0.04957243423
1718178560	-0.7051495259	0.9704570705	-9.944588983	0.1426478296	-0.1465904898	-0.01349895083
1718178560	-0.6850755099	1.122455339	-10.07457496	0.217506891	-0.2168303482	-0.04310799352
1718178560	-1.052100092	0.9359511359	-10.04680666	0.3181690539	-0.1567299929	-0.1445048518
1718178560	-1.377864224	0.404028654	-10.04461237	0.1772593697	-0.001547323901	-0.1541496062
1718178560	-1.360030754	0.138869441	-9.930255337	0.006996508053	0.01867088561	-0.02598807259
1718178560	-1.451508137	-0.02290136671	-9.769005037	-0.06378856706	0.1167692025	0.05614244016
1718178560	-1.462488819	0.09028225541	-9.700891285	-0.07214140537	0.230665986	0.1398032073
1718178560	-1.089808915	0.2187806798	-9.756427295	-0.07779885835	0.09909028198	0.1355837032
1718178560	-0.6614145022	0.3255636411	-9.909466231	0.04974962183	-0.1447117794	0.02747300544
1718178560	-0.7116705983	0.04674353053	-10.15268111	0.01063831947	-0.2198680496	-0.09160173931
1718178560	-0.8351363805	-0.02823560616	-10.50875665	-0.082333223	-0.3200063687	0.0238110237
1718178560	-1.627976026	0.1285837463	-10.4976975	-0.02146886715	-0.1067599529	-0.004861062736
1718178560	-1.787597118	0.3261418429	-10.51680201	0.09456983235	-0.03630679192	-0.03339807281
1718178560	-1.684786732	0.3057046012	-10.6465951	0.07648754279	0.2050934144	-0.1006431712
1718178561	-1.338953771	0.3012034356	-10.59971878	0.09840316978	0.4079527696	-0.1345386705
1718178561	-0.805655946	0.274034913	-10.33246134	0.1377306855	0.1991042481	-0.08552964881
1718178561	-0.8547972858	-0.0003831346907	-10.44704751	0.05008779335	0.2465093311	0.04624613771
1718178561	-0.9314793242	-0.1441327958	-10.55693178	0.06878810273	0.3446714349	0.0642640828
1718178561	-0.1768545504	-0.3071913875	-10.73749293	-0.04359898887	-0.03289002074	-0.04244078012
1718178561	-0.5896805511	0.1308688799	-9.917778133	-0.1432085415	0.01922028534	-0.1068815678
1718178561	-1.117674973	0.609938655	-9.494733338	-0.1008399955	0.2244044449	-0.1340044071
1718178561	-0.5270900933	0.7173585077	-9.585354689	-0.1833202749	0.1285815786	0.02515981909
1718178561	0.1042685582	0.5194984326	-9.890645796	-0.3848609991	0.05172892476	0.08105477252
1718178561	0.2277550636	0.5104927403	-10.03697851	-0.2745799312	0.02277412609	0.01777518131
1718178561	-0.1988135217	0.6606117344	-10.62037227	-0.01198318981	0.4527997699	0.1338514834
1718178561	0.1019209995	0.4029743957	-10.39324811	-0.01652058069	0.1846136557	0.1112516487
1718178561	-0.1529008068	0.4793734891	-10.25551722	-0.06191224524	0.1734508828	-0.008944770597
1718178561	-0.5225191321	0.6066219317	-9.835822318	0.03848696378	0.3079589603	0.08639952876
1718178561	-0.382614037	0.222860807	-9.266381094	-0.07061615476	0.357821625	0.009709818755
1718178561	0.20876097	0.4920652859	-9.265967252	0.01590682088	0.1484446325	-0.05596541901
1718178561	0.7245913816	0.7191779052	-9.607650692	0.124927913	-0.1150134969	-0.1998413778
1718178561	0.6760473501	0.7729109566	-9.682029933	0.08289910312	-0.1775700607	-0.2597912312
1718178561	0.586023563	0.7980469323	-9.707481185	0.1362254335	-0.1132470305	-0.2334928982
1718178562	0.7416228151	0.5268476628	-10.09206736	0.08113845403	-0.2342093385	-0.08635383058
1718178562	0.7543203841	0.3841589284	-10.457452	0.09534035975	-0.4987740529	0.08936671466
1718178562	0.0372089008	0.09766560712	-10.43896123	0.04487600791	-0.4453194164	0.08842991446
1718178562	-0.6110210434	0.2363967631	-10.45920907	0.03413557286	-0.284772581	0.1666669793
1718178562	-0.9034040072	0.2013843037	-10.46308328	-0.06160652267	-0.157420018	0.1630674341
1718178562	-1.226764585	0.2156609221	-10.5632867	-0.04093809147	0.06210459205	0.02872152241
1718178562	-0.7497066797	0.03811904705	-10.97012796	-0.07491467985	0.1653241303	-0.007368947491
1718178562	-0.3850555119	0.09890488486	-11.27568912	-0.1343793469	0.04775491417	-0.04605613365
1718178562	-0.09918593029	0.3979020974	-11.45361524	-0.1550921156	-0.0711896665	-1.05E-01
1718178562	0.1385494153	0.7149795767	-11.52897765	-0.1560171812	-0.1027613497	-0.08782760729
1718178562	-0.3906570947	0.9109013042	-11.09009991	-0.09212772195	0.03283417342	-0.1221620288
1718178562	-0.855475185	0.9924062327	-10.57022731	-0.03966020275	0.1964915206	-0.1007892789
1718178562	-0.788498548	0.877001738	-10.77540852	-0.04508173294	0.2980822279	0.1282765884
1718178562	-0.4234804831	0.9545919773	-10.76222522	0.1202083005	0.2509610212	0.1658318619
1718178562	0.01299847905	0.9118216339	-10.67268231	0.2217685479	-0.06122643548	0.07334608629
1718178562	-0.2041624997	0.2774342366	-10.33238769	-0.009261098998	-0.0003722927555	0.1047132803
1718178562	-0.4807353155	0.1416338095	-10.10391095	0.03570700227	0.243493684	0.1317827981
1718178562	0.1113638593	0.259547538	-10.27269515	0.1015660231	0.01647849442	0.04408261477
1718178562	-0.1074188754	0.4704724263	-10.31199723	0.06219916756	-0.05369321413	0.07765544712
1718178562	-0.07819383127	0.8555141288	-10.16236197	0.1692909254	0.02749702382	0.06496071164
1718178563	0.1009085711	0.9959709395	-10.27925465	0.1865156021	0.09695650738	0.1736968924
1718178563	0.5618869006	0.5516890759	-10.3565869	0.199925051	0.05499324454	0.2618221745
1718178563	0.8649357449	0.02341946088	-10.31641388	0.05942576824	-0.3008468887	0.3280468848
1718178563	0.223598364	-0.07257853497	-10.06968836	-0.01413710144	-0.2138072109	0.1232989989
1718178563	-0.203793703	-0.05043270847	-10.15503089	0.001161302602	-0.01536465642	0.07517724257
1718178563	-0.2870194823	-0.2426868579	-10.26740522	-0.09561713709	-0.03310625485	0.1591897218
1718178563	-0.5650563244	-0.0986593948	-10.10610407	-0.1354237887	0.08236511435	0.2692871815
1718178563	-0.6230708891	0.191586694	-9.940034388	-0.1610223594	0.1455178351	0.2552909716
1718178563	-0.5532414565	0.3169167723	-9.83174937	-0.1497666256	0.2150900723	0.1844917828
1718178563	-0.1532315549	0.6499708787	-9.800545838	-0.06662628172	0.1373213742	0.1140995916
1718178563	0.1711104903	0.8188572267	-9.909740957	0.03414861194	0.05653993359	0.01494789252
1718178563	0.3737929806	0.7222698798	-10.058448	0.07596512213	0.04963267577	0.009615938166
1718178563	0.5994027576	0.6818572785	-10.26371572	0.05227786884	-0.09814752296	0.04999204439
1718178563	0.3984408439	0.640836409	-10.16687564	0.0342258457	-0.1625407441	0.04707103937
1718178563	0.08248886158	0.6170994866	-10.01172132	0.006482566857	-0.1746700447	0.008482133742
1718178563	-0.121386848	0.629953269	-9.990949752	-0.01667365835	-0.05858307333	0.06389827265
1718178563	-0.1149194055	0.5285653535	-10.16351698	-0.0751148497	0.07458978252	0.1059397076
1718178563	0.2684331657	0.5547744747	-10.48940196	-0.07383664889	0.005875838944	0.1013998751
1718178563	0.2820431369	0.6229658213	-10.53737601	-0.09949455816	0.02643416663	-0.01446587492
1718178563	0.1485690338	0.6347063088	-10.31144544	-0.05270925101	0.08446773829	-0.0711867287
1718178564	0.02861571207	0.5913261994	-10.01409214	-0.02577031964	0.10081502	-0.1107898233
1718178564	0.0939242743	0.5180842549	-9.732022921	-0.1262413425	0.2097630344	-0.1456374276
1718178564	0.7098682981	0.5401532442	-10.11734443	-0.10967554	0.09936843251	-0.1543856954
1718178564	0.8857312801	0.4827597705	-10.5470253	-0.1405329967	0.01977493649	-0.1972462438
1718178564	0.5974845759	0.5854822957	-10.66973749	-0.1406326322	-0.01546720061	-0.277364832
1718178564	0.09260793101	0.7950070531	-10.66053828	-0.07912679369	-0.07487524842	-0.2410547777
1718178564	-0.7926375475	0.6894314401	-10.48291377	-0.05516595885	0.1148843336	-0.3443627412
1718178564	-1.108656823	0.7663418805	-10.208607	0.03978800535	0.3121249765	-0.3268521241
1718178564	-0.7858262601	0.6282941767	-10.06209308	0.005732416276	0.4128366409	-0.244927197
1718178564	-0.1056827815	0.3945899772	-10.0553325	-0.02750433503	0.400564728	-0.2182088836
1718178564	0.6958198259	0.4560381696	-10.0628097	0.03292732788	0.2861447748	-0.2395389064
1718178564	1.271589085	0.6983269864	-10.21037927	0.04517874274	0.1751103817	-0.3094895455
1718178564	1.447900907	0.7774476502	-10.27318498	0.1405075136	0.09595138878	-0.376032953
1718178564	1.426179635	0.4708314323	-10.24360232	0.1442867888	0.03282199986	-0.3965875965
1718178564	0.9869756591	0.235204375	-10.24276061	0.09806714543	0.0406610603	-0.3435838332
1718178564	0.6702664286	0.3232435641	-10.16124787	0.1106538523	0.136799894	-0.2880910462
1718178564	0.7687399546	0.5128160687	-10.03594858	0.1795883873	0.05215418998	-0.4151027579
1718178564	0.7971693457	0.8124762204	-10.10793246	0.1600509881	0.01456575491	-0.5316172873
1718178564	0.758518128	0.6990180374	-9.982236869	0.1828607631	0.002269216367	-0.4582841174
1718178565	0.7607162957	0.3545386469	-9.957454309	0.09808973236	0.06471619184	-0.3454768746
1718178565	1.085338418	0.08263753107	-10.2147702	0.008443859124	0.05054475851	-0.3398215855
1718178565	1.17179242	0.1054696228	-10.5099783	-0.02142205585	0.08307572895	-0.4408709387
1718178565	1.200912936	0.2366099309	-10.47540383	-0.07125787671	0.1530691118	-0.4562524916
1718178565	1.444503812	0.3230008414	-10.42781323	-0.06742871296	0.1092158285	-0.5301487537
1718178565	1.474704158	0.373795063	-10.30305054	-0.08852349128	0.09858210924	-0.5766319669
1718178565	1.428050105	0.676802187	-10.41912139	-0.01013399582	0.07119607473	-0.5937162118
1718178565	1.203235826	0.7312281162	-10.42009053	-0.0680932091	0.08616512898	-0.7290232376
1718178565	1.210578224	0.9846137522	-10.47853102	-0.01268891606	0.08953162259	-0.8072812915
1718178565	1.511841902	0.9200776402	-10.9286725	-0.03709765505	-0.03646675219	-0.7703192121
1718178565	1.333897219	0.9039103493	-10.69209077	0.001265145859	-0.04878517052	-0.7341520864
1718178565	0.9559316284	0.7400359843	-10.09123968	-0.01254634955	-0.009578997209	-0.793363878
1718178565	0.7613027172	0.6591281448	-9.962206472	0.02055944965	-0.06108781795	-0.7843562016
1718178565	0.6697565794	0.4801377149	-9.921064315	-0.004139985604	0.0009152843841	-0.7303267218
1718178565	0.7606460069	0.4821530002	-9.841154327	-0.0003666197542	0.02529308741	-0.7590644271
1718178565	0.8933299916	0.752616722	-9.939556249	0.0788729445	-0.0006164058642	-0.7935343868
1718178565	0.8856948206	0.8034930688	-10.06612862	0.1413767361	-0.05984472925	-0.8289670128
1718178565	0.6175089441	0.7105072536	-10.13065516	0.1896794042	-0.01034092864	-0.7631011135
1718178565	0.4741708789	0.5734512643	-10.28933649	0.193596315	-0.005313582179	-0.6646771378
1718178566	0.3843225579	0.2858696546	-10.31562828	0.1511829946	0.042765382	-0.6129685362
1718178566	0.4357194581	0.09503601667	-10.30903254	0.07687722984	0.1075115719	-0.5656999569
1718178566	0.8282888527	0.1075099604	-10.38858713	-0.01999760172	0.1203165248	-0.5086314441
1718178566	1.066589148	0.5108985812	-10.38001103	0.06513802408	0.08649914763	-0.5493475819
1718178566	1.187758344	0.7505265447	-10.55627828	0.1196141909	0.05043230237	-0.6644711423
1718178566	1.265147507	0.9664265728	-10.80275246	0.1388742052	0.03765178398	-0.6753350419
1718178566	0.9414640541	0.6879113909	-10.52470592	0.09559654753	0.06560813859	-0.5248546558
1718178566	0.7962201552	0.286314969	-10.35420439	0.02175565631	0.1204933919	-0.3986364995
1718178566	0.9667937987	0.1683083472	-10.42966616	-0.05180831193	0.132108511	-0.3562076828
1718178566	1.256536769	0.3481351366	-10.54561777	-0.04542502273	0.1469679928	-0.3458854368
1718178566	1.595533308	0.5336097774	-10.51856142	-0.03810413437	0.0185719783	-0.3335069975
1718178566	1.569648195	0.7825584174	-10.55965916	0.01820340305	-0.1058366183	-0.3285167663
1718178566	1.310152186	0.8560214938	-10.43109123	0.05547560959	-0.2200112611	-0.3882063955
1718178566	0.7901345517	1.005167734	-10.17968135	0.08257405598	-0.1990504356	-0.4401868059
1718178566	0.3569255055	0.9966475236	-9.908947176	0.09365251483	0.00301545413	-0.4750475513
1718178566	0.3148453363	0.9631859104	-9.817068518	0.09157528247	0.08480843981	-0.4823811646
1718178566	0.4647339191	1.018617656	-9.920367565	0.06635840932	0.132837876	-0.4404428356
1718178566	0.69948792	0.958669529	-10.00528924	0.02956896107	0.1503600445	-0.4333221753
1718178566	1.013493298	0.936997357	-10.18379054	0.004633989762	0.1226697522	-0.4380252845
1718178566	1.341360686	0.9277958134	-10.55090185	0.00607772632	0.02237374479	-0.4529227746
1718178567	1.292434304	0.8507004449	-10.73011509	-0.05674108964	-0.003184597889	-0.4199263086
1718178567	1.129560129	1.016443453	-10.84994559	-0.006127359424	0.04402047157	-0.4681433062
1718178567	1.204344664	1.116249397	-10.85619412	0.04910817867	-0.01233944066	-0.529748414
1718178567	0.9518203207	0.8252182131	-10.34418217	0.0323695059	0.06493246133	-0.6040819672
1718178567	1.015555638	0.9500311722	-10.12131567	-0.02199868224	0.1170076969	-0.4437491501
1718178567	1.527530031	0.7347418234	-10.56455628	-0.07438464422	-0.1111681004	-0.4824627239
1718178567	1.214325083	0.7786641133	-10.49016769	-0.05099171184	-0.03361334569	-0.4788152917
1718178567	0.7769196808	0.7424497674	-9.986372945	-0.05163195241	0.05635442778	-0.4645704758
1718178567	0.679748835	0.7455814896	-9.790579155	-0.08929356928	0.1479153958	-0.5027554787
1718178567	0.9119660839	0.9211370131	-9.777946468	0.01577317909	0.1410461379	-0.5249349501
1718178567	0.9657041768	0.7878020171	-9.663685298	-0.006777045374	0.2126616356	-0.516422655
1718178567	1.096626705	0.6568329465	-9.65855378	0.008519119432	0.1871276132	-0.4866484474
1718178567	1.239278322	0.7274279202	-9.764324185	0.04788989067	0.1599961603	-0.5210716355
1718178567	1.546255775	0.7926166509	-10.095986	0.0860940309	0.178843551	-0.591033876
1718178567	1.960898068	0.8436430007	-10.3579313	0.1204505983	0.1086570723	-0.6656708297
1718178567	2.514723644	0.7212419981	-10.60173538	0.1454098772	-0.009911891305	-0.6137949817
1718178567	2.48750509	0.5215755676	-10.45857662	0.1035001605	-0.1836902379	-0.5678438682
1718178567	1.864979048	0.4546230787	-10.22209426	0.04905355474	-0.2629123062	-0.6140636281
1718178567	0.9398439055	0.5624759525	-10.08100938	0.07389544649	-0.1016734234	-0.6218148916
1718178568	0.7275782884	0.5162280691	-10.1909673	0.05008260019	-0.03327166837	-0.5641562556
1718178568	0.688329324	0.4225896717	-10.37619644	0.05173915713	-0.02134097508	-0.5367046241
1718178568	0.6733309307	0.3888672522	-10.44115553	0.0415689444	0.1074732307	-0.554353093
1718178568	0.8748417835	0.5653789074	-10.46845036	0.07162088222	0.2371528972	-0.6041321678
1718178568	1.417937584	0.8288578848	-10.68372393	0.1275845244	0.1505880444	-0.6889516514
1718178568	1.725535068	1.08661516	-10.89320254	0.1933763379	0.0918010686	-0.6962989799
1718178568	1.853521835	0.9013572308	-10.75195049	0.167939704	-0.05117716772	-0.605502231
1718178568	1.620776178	0.6139866152	-10.5038946	0.07827127816	-0.1358670053	-0.4600651729
1718178568	1.076239312	0.5685243658	-10.24790207	0.0285735526	-0.131147293	-0.44226021
1718178568	0.5979749167	0.8026729116	-10.12978773	0.01592870042	-0.1182434286	-0.4295757734
1718178568	0.2345986093	0.9102144179	-10.08437272	-0.04163888983	-0.001892243704	-0.360887456
1718178568	0.2215712239	0.9140349991	-10.04287049	-0.09319530001	0.1056735163	-0.2519376357
1718178568	0.4133065508	0.9375313908	-10.16258058	-0.1043973711	0.1821590701	-0.267192006
1718178568	0.7640382066	1.077669929	-10.21165353	-0.09052034611	0.1970669299	-0.2808190851
1718178568	1.148871564	1.239116702	-10.170986	-0.05747179863	0.2077643486	-0.3381336074
1718178568	1.575537983	1.353106654	-10.14195163	0.0135547555	0.1294574257	-0.4106337073
1718178568	1.791687748	1.228206893	-9.979971262	0.04472471955	0.02151455076	-0.4542237954
1718178568	1.841095922	1.154969954	-10.01447793	0.0849933381	-0.118381938	-0.5114156791
1718178568	1.491489288	0.9779716839	-10.1022018	0.06459717767	-0.1442205261	-0.6463426052
1718178569	0.939141018	1.051840345	-10.24562594	0.0968126634	-0.06620883122	-0.7146215948
1718178569	0.5678963336	1.069022439	-10.25748004	0.09547554015	0.06872214788	-0.7977289321
1718178569	0.6568518704	0.9973335331	-10.3888981	0.04745391871	0.07442593986	-0.7652932945
1718178569	0.731169664	0.7943677323	-10.44101056	0.01334481206	0.04971582049	-0.703991787
1718178569	0.6029758668	0.754083945	-10.27397759	-0.06233852578	0.1030009676	-0.6436311744
1718178569	0.4652437684	0.8731412632	-10.00765305	-0.03403604345	0.132385821	-0.6621031926
1718178569	0.3229518512	0.8946814062	-9.718397132	-0.03380380748	0.1481203427	-0.6994164763
1718178569	0.4505536008	0.9862360197	-9.67400094	0.009095544005	0.3029751206	-0.6150047226
1718178569	1.197538929	1.035494264	-9.991534274	0.005489183843	0.2793674626	-0.5663400477
1718178569	1.920390408	1.142613891	-10.34461823	0.04373341609	0.1735135171	-0.5746959819
1718178569	2.275143027	1.25839248	-10.63480178	0.1292114745	0.03130861071	-0.6000982111
1718178569	2.127190015	1.23241019	-10.56217961	0.1696170294	-0.01945593348	-0.6830481556
1718178569	1.921413176	1.053512516	-10.38394603	0.1971627371	-0.1113131012	-0.6589894246
1718178569	1.463019711	0.7816045507	-10.25527055	0.1753894477	-0.1179072878	-0.5750125652
1718178569	1.042456431	0.4352540691	-10.3297854	0.09810959788	-0.01504266152	-0.5105803454
1718178569	0.8484517161	0.2639912926	-10.30444053	0.05671964703	0.09148475996	-0.5390190775
1718178569	1.124732636	0.5111512408	-10.1665109	0.02614691766	0.1230662053	-0.5135515343
1718178569	1.464111306	0.7849833795	-10.26861986	0.06989219106	0.129493162	-0.5385945364
1718178569	2.057198195	0.9867533216	-10.62892149	0.1112351704	-0.04946387297	-0.4903768397
1718178569	1.988176389	1.124277367	-10.64931312	0.1369492141	-0.1110734333	-0.4457102353
1718178570	1.499896613	0.8309192012	-10.44130283	0.1019999103	-0.073611695	-0.4119556672
1718178570	1.253651131	0.7933833974	-10.56866313	0.06774636566	-0.06298763801	-0.3439737865
1718178570	1.242123921	0.6755313634	-10.81497949	-0.0107772699	-0.09383683055	-0.266331805
1718178570	1.101265836	0.7069213579	-10.90937159	-0.07954724857	-0.1343135668	-0.249069561
1718178570	0.7713731526	0.9277771818	-10.8765577	-0.1003096769	-0.1423928985	-0.2274867709
1718178570	0.5295775992	1.089471426	-10.91255957	-0.09949236105	-0.1529682446	-0.214046496
1718178570	-0.0464742349	1.089330264	-10.41823175	-0.05536591648	0.1107734532	-0.2585352511
1718178570	0.125841261	1.249643064	-10.01836266	-0.004990881436	0.1431848727	-0.2294398334
1718178570	0.263163025	1.154098943	-9.99472927	-0.07223994233	0.1504914382	-0.2946551058
1718178570	0.4832311509	1.274918814	-9.935990666	-0.03328951987	0.2009198582	-0.3705527667
1718178570	0.9431927045	1.447155349	-9.802633166	0.02931467496	0.1807065154	-0.40377164
1718178570	1.275318334	1.363742029	-9.823237562	0.05614410047	0.07107194646	-0.4631351652
1718178570	1.473078749	1.425863847	-10.06630398	0.09439857445	-0.06847279278	-0.4604722704
1718178570	0.9213652689	1.165450796	-10.14341644	0.06528623731	-0.005898681271	-0.5233327258
1718178570	0.4427006953	0.9856978942	-10.27517001	0.004248868581	0.1478976857	-0.5585871863
1718178570	0.7580666579	0.9425101291	-10.5762701	0.001059605154	0.06550874858	-0.5260782452
1718178570	0.9582781185	0.8678493673	-10.69743096	0.02412867848	0.05095719061	-0.5376714847
1718178570	0.984446652	0.8313196718	-10.33943703	0.03319742651	0.009560470554	-0.6275199819
1718178570	0.8932078266	0.9122779993	-10.03297921	0.08884515953	-0.0256899109	-0.610927423
1718178571	0.612760471	0.834255433	-9.935254168	0.06280093793	0.1186276728	-0.5748210839
1718178571	0.7232710928	0.8831295732	-9.985105702	0.1317162524	0.1764215725	-0.5739941724
1718178571	1.153122572	0.8881160564	-10.03878001	0.1431549787	0.172968601	-0.5821504361
1718178571	1.620083227	0.8525032565	-10.14344567	0.1437378947	0.07078281871	-0.5834271555
1718178571	1.767649724	0.7755928892	-10.28272204	0.1358637429	-0.05117377219	-0.5314522712
1718178571	1.485180251	0.7222532209	-10.39130984	0.09777851702	-0.01778272763	-0.4939110542
1718178571	1.228615328	0.5585762416	-10.45932597	0.06305764586	0.03892575702	-0.4002855621
1718178571	0.9385965358	0.4181461728	-10.40376717	0.01195896649	0.1533853289	-0.3689528727
1718178571	1.051518493	0.4854492653	-10.26469421	-0.007461334734	0.2177802312	-0.3812970904
1718178571	1.289346275	0.9534584433	-10.03720063	0.05056863541	0.3024347652	-0.3525827876
1718178571	1.918122756	1.18219523	-10.13279451	0.1471312446	0.2161766919	-0.4434149233
1718178571	2.281265309	1.352442345	-10.22140452	0.2084077184	0.03931049225	-0.4592373959
1718178571	2.21305818	1.192881386	-10.25785998	0.2046201874	-0.0362615057	-0.3441118048
1718178571	1.812463556	0.7331593765	-10.20978656	0.113267903	-0.1415199309	-0.208003151
1718178571	1.146834432	0.5053816809	-10.01265071	0.04763178042	-0.09178353335	-0.05853255233
1718178571	0.6704871587	0.4340931721	-9.647933018	-0.02238613889	0.07817156774	-0.07311709605
1718178571	1.063888072	0.6650193217	-9.449166349	-0.004038746211	0.01155062795	-0.2160242426
1718178571	1.441613497	0.7403577636	-9.599220717	0.006703741345	-0.05450981838	-0.2466125119
1718178571	1.585452059	0.5573554311	-9.997511595	-0.03673306414	-0.186632465	-0.1665855532
1718178572	1.428815682	0.615055998	-10.39302249	-0.08975655983	-0.163012107	-0.1729178512
1718178572	1.214514322	0.8423447045	-10.74737135	-0.07716730634	-0.09959015732	-0.2451797313
1718178572	1.111742441	1.090148887	-10.90611346	0.0029065956	-0.02938761436	-0.3336829992
1718178572	1.044354154	1.109964471	-10.86948264	0.01957884045	0.07267309716	-0.3679444002
1718178572	1.187125306	0.9692430916	-10.72069143	-0.005715979578	0.1040666565	-0.3521571812
1718178572	1.293313718	0.6277285787	-10.37499349	-0.07735001583	0.1533132238	-0.4062300706
1718178572	1.617378937	0.8116039677	-10.41780505	-0.159709421	0.0698354158	-0.3387689711
1718178572	1.681102344	0.5868299474	-10.56054646	-0.1871077727	-0.07089772579	-0.4508389842
1718178572	1.17941707	0.9758884479	-10.4958621	-0.1319360381	-0.07814842321	-0.5169576175
1718178572	0.6557938858	1.119410272	-10.5058621	-0.09658760964	0.00350767678	-0.6039201135
1718178572	0.4932942797	1.29634271	-10.44130283	0.06004633055	0.1043555013	-0.586551443
1718178572	0.9599045507	1.093388454	-10.46107252	0.06313816487	0.08811829964	-0.5625194768
1718178572	1.433976134	1.077178127	-10.31338021	0.07956733879	-0.07906957734	-0.5521034543
1718178572	1.343097593	1.132717497	-10.48348894	0.05796469981	-0.1374781678	-0.5540233271
1718178572	0.8511141403	1.179867737	-10.2619002	0.1926752108	-0.1427620792	-0.5628716798
1718178572	0.2286457288	0.9661849461	-10.21930843	0.1653630956	-0.01936908114	-0.4259937219
1718178572	-0.1112454937	0.676393387	-10.49115553	0.05774604596	0.08975209071	-0.2722932578
1718178572	-0.3893900339	0.5473792499	-10.4186339	0.03682293334	0.2630146548	-0.2653220508
1718178572	-0.05168998766	0.6261082841	-10.34815459	0.04587582932	0.4741445732	-0.2226394182
1718178573	0.8329267417	0.6826642109	-10.17540849	0.02868502461	0.4160884271	-0.1990454588
1718178573	1.573748469	0.8116734527	-9.939304905	0.0884908842	0.3972333132	-0.2194565246
1718178573	2.416281536	0.6974358828	-9.818573078	0.0399957985	0.1945563346	-0.2351706897
1718178573	2.93643836	0.7332326609	-9.777875741	0.05951970293	0.08403479984	-0.2329958359
1718178573	3.617775779	0.7289865478	-10.0535123	0.06846611407	-0.266289544	-0.2523469802
1718178573	3.340215267	0.7369692171	-10.19249874	0.02542080055	-0.5503496961	-0.2688174664
1718178573	2.058474352	1.006797162	-10.2300835	0.04816782482	-0.5108311486	-0.3340376989
1718178573	0.6950421926	1.234252311	-10.37921023	0.1265478973	-0.3057082896	-0.2208312151
1718178573	-0.03227404735	1.386237939	-10.17510571	0.1025303288	-0.1911832247	-0.0483147356
1718178573	-0.3569172126	0.9992801371	-10.14305638	0.03909783051	0.001713202687	-0.08747864164
1718178573	-0.2846222849	0.9945873762	-10.0984971	0.05778500302	0.1673965856	-0.1355701045
1718178573	0.09823273949	0.6645090341	-10.19517469	-0.06865909754	0.1835045656	-0.1128839584
1718178573	0.5819444769	0.7562941684	-10.43123619	-0.09741260701	0.0592070603	-0.08213860418
1718178573	0.7040664069	0.95817232	-10.49502156	0.002743733937	0.1091516214	-0.2829654598
1718178573	1.13924953	1.051495258	-10.69075923	0.032981931	0.05891955541	-0.3581162372
1718178573	1.248518006	1.102252144	-10.71387123	0.07513154439	-0.001855205089	-0.4960918502
1718178573	1.1773521	1.203853811	-10.70374263	0.1063264818	-0.003475574765	-0.5771601383
1718178573	0.7544632997	1.037608772	-10.61980061	0.02040547317	0.184527619	-0.5515382316
1718178573	0.5887362925	1.094448265	-10.32675641	0.03507627001	0.3046785117	-0.498472117
1718178573	1.052374891	1.003627519	-10.19890861	-0.01347734386	0.2285481738	-0.440506818
1718178574	1.640338811	0.8240945429	-10.33050202	-0.03637267186	0.1031957279	-0.4832700944
1718178574	1.673353922	0.6739321115	-10.26033017	0.03661114962	0.05186311063	-0.6250031615
1718178574	1.55985833	0.6377718338	-10.04998997	0.07864242294	0.01142067921	-0.6627771721
1718178574	1.084078335	0.4657506219	-9.732411044	0.0760416464	0.03685837419	-0.6002453507
1718178574	0.9187060596	0.4751451673	-9.581568156	0.07504797939	0.1713708542	-0.5057085249
1718178574	1.351703801	0.395302619	-9.541880873	0.02405236851	0.1079804297	-0.4190119455
1718178574	1.724353019	0.4601895172	-9.534837969	0.04149557847	0.07432368279	-0.4911455944
1718178574	2.121714068	0.6225844208	-9.67665467	0.07330515684	-0.04535035851	-0.4768925227
1718178574	2.129914472	0.5831727401	-9.724992292	0.07856266959	-0.1496117628	-0.4883035688
1718178574	1.845559331	0.5933503256	-9.947102427	0.1325931731	-0.1650630406	-0.4384292528
1718178574	1.371192053	0.4842918754	-10.39913892	0.09911448346	-0.05691709546	-0.4299010786
1718178574	1.127232344	0.3843817043	-10.6030716	0.09940996951	0.08768025958	-0.4901031
1718178574	1.284652272	0.587381115	-10.70398696	0.1089996547	0.1553018395	-0.4009828776
1718178574	1.63880108	0.7157677314	-10.85854624	0.1167324259	0.08966061113	-0.4492418532
1718178574	1.753605417	0.891680617	-11.00816982	0.1116200554	0.0227519844	-0.5159005756
1718178574	1.545943348	0.9661186759	-10.87017004	0.1244658795	-0.04827855822	-0.4853510552
1718178574	1.226076311	0.9138550394	-10.24983917	0.07865188549	-0.2119655019	-0.3756549173
1718178574	0.6297395532	0.8494755062	-9.65830945	0.0625117977	-0.1768549354	-0.2693951726
1718178574	0.3057752919	0.4302029232	-9.766744106	-0.05684832765	-0.06756916558	-0.24017938
1718178575	0.4019008847	0.4990879511	-10.05338253	-0.0638527326	0.03062766747	-0.2160166526
1718178575	0.7827752019	0.5735322936	-10.16416346	-0.1265710002	-0.03061961141	-0.1589493216
1718178575	0.8818963782	0.7875097562	-10.28011974	-0.1434398204	-0.08283672689	-0.1847131248
1718178575	0.8869603835	1.119636263	-10.35547046	-0.1101666602	-0.1126626664	-0.2181093313
1718178575	0.8793729972	1.529223099	-10.43224157	-0.02226197733	-0.04663545025	-0.2700720816
1718178575	0.9518594836	1.61538601	-10.4299935	0.05120521413	-0.02175208393	-0.2739164212
1718178575	0.9456609212	1.497465294	-10.43542604	0.1230003836	0.04958602468	-0.2658906024
1718178575	1.059257709	1.118557455	-10.42438092	0.09818867712	0.08479100443	-0.264496937
1718178575	0.9442677133	0.8594869779	-10.37415529	0.06129238201	0.1405670019	-0.3407869481
1718178575	0.8481346861	0.7964437349	-10.22174237	-0.00535830248	0.1980565272	-0.4035453379
1718178575	0.9684672118	0.8763702351	-10.22159741	-0.04766231939	0.1677592249	-0.350644539
1718178575	1.073834004	0.9343632091	-10.29551138	-0.06314633744	0.1490258341	-0.2448777954
1718178575	1.288926004	0.9844193256	-10.36130399	-0.08767444223	0.1421868364	-0.2490826604
1718178575	1.568810282	1.058401458	-10.2974929	-0.05936080792	0.001030023585	-0.3257547686
1718178575	1.407640939	1.040333667	-10.21423244	-0.01056717353	-0.1519735539	-0.2637179956
1718178575	0.9830865427	0.8378866291	-10.32408514	-0.007407229911	-0.07731075085	-0.1382563768
1718178575	0.7890230833	0.4467501168	-10.3219645	0.0003433576663	0.00565380517	-0.1357479703
1718178575	0.9677526338	0.3975823639	-10.27666405	-0.002507481639	-0.006809199924	-0.2407837844
1718178575	1.245611471	0.5676715849	-10.19708958	0.01871540201	-0.06664570199	-0.3125213214
1718178575	1.299341015	0.7302634359	-10.11678913	0.09048875436	-0.1501145177	-0.2807100952
1718178576	1.21921059	0.6131683577	-10.21721701	0.1316136541	-0.2255306292	-0.2522480271
1718178576	0.8321740236	0.3151610877	-10.29696917	0.1154534262	-0.1987002133	-0.2144343854
1718178576	0.366946768	0.08957704801	-10.37161729	0.08399451121	-0.008243447929	-0.2245274829
1718178576	0.4795237843	-0.07663619917	-10.46226846	-0.05901852514	0.06470301752	-0.1776580615
1718178576	0.5658118189	0.1855615884	-10.42381393	-0.01307106511	0.1139075777	-0.255868345
1718178576	0.6352081208	0.6225049258	-10.47207089	0.03236224671	0.2207359239	-0.3071094119
1718178576	0.9521545211	0.8122764601	-10.73336503	0.1086971113	0.1913402514	-0.3469387171
1718178576	1.112114635	1.125631412	-10.83522966	0.1465702664	0.04447109091	-0.2564729824
1718178576	0.9912532633	1.082228542	-10.92702532	0.1087078222	0.05519055148	-0.173748075
1718178576	0.97012835	1.087145468	-10.87637883	0.1290153909	0.01715842649	-0.1739621931
1718178576	0.9025701867	0.8972972878	-10.66909451	0.1124938802	-0.04952528796	-0.2651279064
1718178576	0.6674983521	0.8131506856	-10.48536525	0.06632047176	0.02257975694	-0.2746356079
1718178576	0.6310215559	0.6577919278	-10.24138465	-0.04372339595	0.09657183873	-0.2120168177
1718178576	1.007358887	0.7603555726	-10.18657052	-0.1019261158	0.04664876605	-0.162764433
1718178576	1.338930975	0.9549055003	-10.13181368	-0.1184492494	-0.02338653039	-0.2037843043
1718178576	1.49724376	1.126954112	-10.14087962	-0.0895003887	-0.02436268088	-0.2284771506
1718178576	1.726615118	1.273027155	-10.13819666	-0.02477085609	-0.1540478734	-0.2401135999
1718178576	1.415766962	1.339108816	-10.00548447	0.05540648391	-0.1161470964	-0.3104597351
1718178576	1.167619007	1.114849175	-9.923723889	0.007308472408	-0.04237404712	-0.3321094372
1718178577	1.000974301	0.9235173324	-10.01564113	-0.005769371797	0.04114178168	-0.3328141762
1718178577	0.7662127011	0.6332276876	-9.772111771	-0.07792569139	0.1660942832	-0.3657762208
1718178577	0.7287316962	0.7482732859	-9.627045713	-0.1488834881	0.3002421181	-0.2572657389
1718178577	1.107572681	0.4627932699	-9.756791452	-0.2148278341	0.1768906384	-0.232851376
1718178577	1.243066901	0.7368773741	-10.04232689	-0.08924150448	0.1697569453	-0.3498601382
1718178577	1.240622284	0.7955615452	-10.12123734	-0.06500859861	0.1751644106	-0.5067537491
1718178577	1.340155402	1.149867662	-10.35561893	0.00556937308	0.07192753689	-0.5176855926
1718178577	1.225267113	1.266601944	-10.58940314	0.08992329868	0.1059270326	-0.4548239054
1718178577	1.384935332	1.04398291	-10.5811076	0.1185601034	0.08036443955	-0.4544025601
1718178577	1.519257293	0.7880009737	-10.46653079	0.1402983223	0.06163296702	-0.4528905504
1718178577	1.713461038	0.5854639198	-10.30601757	0.1036731994	-0.06007239208	-0.4148606433
1718178577	1.652816307	0.4299905225	-10.12169561	0.0283671909	-0.09785431724	-0.3573663243
1718178577	1.51443075	0.5168696915	-10.08229766	0.05973280575	-0.1247419162	-0.272513418
1718178577	1.358399499	0.5172162034	-10.24972227	-0.00797268507	-0.04983835087	-0.2266146689
1718178577	1.274083386	0.6204222012	-10.29628762	0.02292349614	-0.0166400994	-0.1823265663
1718178577	1.253086044	0.6959908716	-10.3176063	0.03463702528	0.08197399585	-0.2080908022
1718178577	1.508058146	0.8538128048	-10.51039097	0.06126625807	-0.06330832838	-0.2951343749
1718178577	1.360757022	1.091226672	-10.64871457	0.09832678699	-0.189200984	-0.3817865794
1718178577	0.6361286697	1.082372189	-10.50972462	0.06851082605	-0.08544853058	-0.270482275
1718178578	0.140292761	1.131974789	-10.44985438	0.07837392637	-0.04511047427	-0.1748834804
1718178578	-0.1706060844	1.089512051	-10.40778868	0.0394808763	0.106506861	-0.1879389286
1718178578	0.007434006475	1.05509394	-10.30543071	-0.01112765451	0.2014516914	-0.2340201542
1718178578	0.504249937	1.073947986	-10.13975383	-0.04181605662	0.1353878194	-0.2178240235
1718178578	0.8990556027	1.059796784	-10.03850996	-0.05050559339	0.1181404309	-0.1849174225
1718178578	1.322947955	1.208512305	-10.09955626	-0.05299865339	0.03302824504	-0.1624805733
1718178578	1.495637348	1.367666363	-10.19825161	-0.01677038312	-0.03511713289	-0.2594296072
1718178578	1.470850843	1.490103387	-10.23619292	0.02917269102	-0.09327277303	-0.356891749
1718178578	1.348726393	1.538820802	-10.41826214	0.05036057595	-0.07432648744	-0.4258860303
1718178578	1.121094572	1.514758959	-10.43239354	0.08266633451	-0.0328380995	-0.3534806724
1718178578	1.03357031	1.158905466	-10.31783193	-0.01220449538	0.001386512144	-0.300899586
1718178578	0.8461090985	1.008318088	-10.12251745	-0.03804203278	-0.01756146679	-0.3347684371
1718178578	0.5482829208	0.9156901459	-10.09316509	-0.08680834896	0.09314980157	-0.363057899
1718178578	0.7515373292	0.917922508	-10.36050436	-0.08015808618	0.07569897247	-0.3649698822
1718178578	0.832840817	1.060132008	-10.49286584	-0.03822394333	0.0940317573	-0.3970139353
1718178578	1.116305803	1.099505329	-10.42118124	0.02304384397	-0.007737115988	-0.4075380821
1718178578	1.075774836	1.053085377	-10.2923421	0.0762664921	-0.04935644355	-0.4004605318
1718178578	1.070094306	0.7827672378	-10.16029159	0.06034121322	-0.01348001846	-0.374900244
1718178578	1.092871663	0.7422020032	-10.05841878	0.01443914552	-0.0939489746	-0.3096071907
1718178578	0.8751217694	0.8470322047	-9.961675727	0.03263998528	-0.06016747941	-0.311957963
1718178579	0.8365292231	1.023248384	-10.06210945	0.1012332195	-0.06637517475	-0.3179836646
1718178579	0.7901448539	0.8558383923	-10.16964511	0.1040384186	-0.04608777949	-0.3116168786
1718178579	0.748426796	0.6424157141	-10.32234678	0.07643571102	0.03750380793	-0.308061259
1718178579	0.9299730844	0.5982439429	-10.43505662	0.02425901109	0.1021906509	-0.258516892
1718178579	1.223115269	0.6396718953	-10.41541318	-0.02074592294	0.1642081825	-0.2490632859
1718178579	1.662147615	0.8546939715	-10.42180551	0.008237228512	0.08933542252	-0.2469396979
1718178579	1.623889049	1.099047429	-10.38971994	0.02164746747	-0.01575265819	-0.253604192
1718178579	1.074534408	1.172212619	-10.54699607	-0.002330701318	0.03589388127	-0.1953143036
1718178579	0.6183170457	1.096563796	-10.55654015	0.02920395404	0.09578269417	-0.2173826379
1718178579	0.7464482625	1.169675867	-10.73502157	0.02107974602	0.08229355022	-0.1357166449
1718178579	1.017739923	1.18633138	-10.47578143	-0.0318546274	0.02970596614	-0.05097907431
1718178579	0.9530460631	1.235999154	-10.14760863	-0.02149100884	-0.05778154091	-0.1646717557
1718178579	0.6882857041	1.331824212	-10.13037108	0.03256001555	-0.1252478835	-0.2356527385
1718178579	0.2270538017	1.194350362	-10.20956094	0.01708860486	0.02145881372	-0.118226143
1718178579	0.3081374362	0.8921186431	-10.17259344	-0.03946941223	0.08642618534	-0.08603227885
1718178579	0.6810571411	0.8870689585	-10.17391679	-0.09872484635	0.0532684649	-0.1431383838
1718178579	1.034365114	1.086712191	-10.23745315	-0.08656666709	0.0526480524	-0.2968750503
1718178579	1.294841073	1.402411075	-10.23437623	-0.04042668132	-0.02491938557	-0.4328317542
1718178579	1.117286339	1.574425784	-10.06806689	0.003592404053	0.01724326378	-0.4576383341
1718178580	0.8900660945	1.490171922	-10.1055593	0.01704309705	0.07514044101	-0.4221969197
1718178580	0.5934087413	1.313465694	-10.13997595	-0.02876309893	0.2731705697	-0.5300656964
1718178580	0.7519805429	1.42185125	-10.30330071	-0.06135326021	0.3524927728	-0.4147533845
1718178580	1.122560334	1.145743202	-10.47849128	-0.1006902093	0.2665759337	-0.3319089011
1718178580	1.391299898	1.161668355	-10.48436572	-0.07972764444	0.2139497733	-0.3322582746
1718178580	1.484122413	1.155759862	-10.22538862	-0.02478941083	0.04957254658	-0.4208575827
1718178580	1.211687647	1.290509035	-10.11299325	0.04929561944	0.02889358966	-0.4358242484
1718178580	1.136113277	1.225879473	-10.19844333	0.05508742057	0.1116870672	-0.3178695814
1718178580	1.2771229	1.103134772	-10.08919151	0.1105825295	0.01812687878	-0.2351924777
1718178580	1.379778095	0.8793507853	-10.01327849	0.1161265068	-0.007005953433	-0.2900801945
1718178580	1.344803228	0.7726732754	-10.02923009	0.1206567602	-0.07384582847	-0.313799672
1718178580	1.086080688	0.5329667302	-10.15181953	0.02063834164	0.04743819774	-0.3210120116
1718178580	1.213227204	0.7588027171	-10.29345035	0.03558382274	0.112838177	-0.2391590564
1718178580	1.381883689	0.9110627053	-10.19419035	0.004398072181	0.1401906473	-0.2076287937
1718178580	1.600749874	1.134685583	-10.20571829	0.07410215773	0.1410205216	-0.2316802509
1718178580	1.661126747	1.139178656	-10.12390159	0.1002849677	0.1146811261	-0.3052567839
1718178580	1.761977524	1.082615277	-10.29775009	0.1029339308	0.2663470516	-0.3220636273
1718178580	2.309586856	0.9753529527	-10.61371223	0.1074979065	0.1580148183	-0.3259519091
1718178580	2.499059919	1.071313254	-10.52394136	0.03722764228	-0.1364568705	-0.1897931878
1718178580	1.869772859	1.197747019	-10.31770801	-0.04423207636	-0.05868235931	-0.1641895238
1718178581	1.41735087	1.430489753	-10.18866896	-0.02623301267	-0.02905586772	-0.265397152
1718178581	1.158323356	1.70432686	-10.08305988	0.1075506787	-0.0110413889	-0.3789492143
1718178581	1.200904314	1.604800756	-10.18096028	0.09878635705	-0.0527736995	-0.3310745328
1718178581	1.189496712	1.242901335	-10.14121981	0.03900354629	-0.06946415034	-0.2621389741
1718178581	1.147128958	1.113150627	-10.18099185	0.004399302852	-0.08923196703	-0.2368394431
1718178581	1.085341998	1.14849557	-10.2253933	-0.03125656464	-0.1099953358	-0.3381402653
1718178581	1.013495344	1.371114604	-10.20563178	0.002629738939	-0.02038944635	-0.4566615532
1718178581	1.151755887	1.594275271	-10.17817445	0.0458125626	-0.002151799311	-0.5007067755
1718178581	1.142105942	1.50387107	-10.09118473	-0.004829701934	0.06029030523	-0.4655497534
1718178581	1.060604155	1.38358874	-9.935881945	-0.01246682715	0.1481011013	-0.4713399317
1718178581	1.342914346	1.367606304	-10.0876437	-0.09230425624	0.1563934193	-0.398275974
1718178581	1.638083433	1.297792617	-10.44407229	-0.1057043258	0.09974766665	-0.438163436
1718178581	1.932786218	1.458258488	-10.8939028	-0.004106274249	-0.0002086820781	-0.6182659631
1718178581	1.749381223	1.442731395	-10.56594744	0.1562339625	-0.1895347446	-0.7681306264
1718178581	0.954512117	1.174267286	-9.993709864	0.1553020059	-0.1406695836	-0.7710505828
1718178581	0.2112529695	0.9873097864	-9.769851424	0.09456520511	0.04580221788	-0.453118517
1718178581	0.1891188608	0.7201297991	-9.906046778	0.06368223619	0.1315545569	-0.2573579675
1718178581	0.6003762422	0.7081715041	-10.20139634	0.07622350701	0.07796796907	-0.3580445649
1718178581	0.9492510547	0.7421393132	-10.37507883	0.05228692359	0.05569427176	-0.5045154953
1718178582	1.242476241	0.9509183303	-10.28491166	0.06967864716	0.0187935221	-0.4897424081
1718178582	1.497400851	0.893064984	-10.15619643	0.05610930877	0.04744953698	-0.4293627206
1718178582	1.766281943	0.8247545411	-10.19184291	0.06665096173	-0.0383492617	-0.3624964714
1718178582	1.649288133	0.6984595998	-10.18121864	0.01886789711	-0.0836233581	-0.3751748825
1718178582	1.310784639	0.7719426231	-10.13960185	0.002797148522	0.0577053204	-0.3868393284
1718178582	1.474794759	0.9556134293	-10.28497361	0.01361253153	0.03639229603	-0.3002119911
1718178582	1.386116066	1.006488242	-10.35483918	0.02762970958	0.0135982909	-0.2633436384
1718178582	1.094096675	1.026568688	-10.25645713	0.02143627047	0.1298467133	-0.3476724845
1718178582	1.237487786	1.113573675	-10.39496894	0.0481149902	0.02733908797	-0.335945754
1718178582	1.030872522	1.175553307	-10.58178799	0.003894641628	-0.02088666685	-0.2346717631
1718178582	0.8051693315	1.283408556	-10.79074287	-0.03060161635	0.09676712334	-0.1922544646
1718178582	0.9383403691	1.517736221	-10.83992571	0.006687006082	0.04647276439	-0.2885512404
1718178582	0.9895870837	1.589635336	-10.89922779	0.06690040838	0.06655904938	-0.4419623021
1718178582	1.136172606	1.607794678	-10.85231173	0.08447435458	0.05049097098	-0.3534996141
1718178582	1.220719095	1.404895732	-10.41116254	0.05690648027	-0.1080875304	-0.2475975154
1718178582	0.9026878218	1.176590907	-10.07572062	-0.03719828509	-0.09279992046	-0.2280920408
1718178582	0.5742048226	1.198389116	-9.877677593	-0.03097902164	0.08937081759	-0.2055964023
1718178582	0.744212247	1.367660956	-9.988097285	0.00126360856	-0.02795253048	-0.2745540985
1718178582	0.500150758	1.388469643	-10.22569725	-0.07209780443	0.009565449417	-0.4039123548
1718178583	0.2289009822	1.721551697	-10.58180435	0.01911581036	0.1969244008	-0.5237996112
1718178583	0.3755512225	1.621571859	-10.5146007	0.1204903459	0.3793165974	-0.4590554687
1718178583	0.8150828958	1.249905807	-10.42365728	0.06374812863	0.4383279528	-0.3375742437
1718178583	1.447762959	0.7986116535	-10.20530796	-0.03372246456	0.2326817493	-0.3458795113
1718178583	1.476804637	0.6853531578	-10.35034187	-0.06147656457	0.1490697596	-0.4635312105
1718178583	1.41669416	0.7769850742	-10.31869585	-0.04082199845	0.1270731309	-0.5933259922
1718178583	1.301807405	1.06570557	-10.0893014	0.01180399132	0.1290491548	-0.481960951
1718178583	1.138304942	1.104054371	-9.782053319	-0.06379198756	0.2036192383	-0.3982316324
1718178583	1.15676882	1.25592989	-9.62387059	-0.0205620712	0.2329689879	-0.2710758104
1718178583	1.462416339	1.285634269	-9.695700731	0.1049083402	0.1918622809	-0.2936281576
1718178583	1.66431546	1.09428701	-9.805234288	0.07565492212	0.1364885122	-0.3766417849
1718178583	1.713512914	0.9697913	-9.968166258	-0.01084074364	0.2395744596	-0.3024068686
1718178583	1.960754275	1.249804831	-9.939474416	0.02342979635	0.286759965	-0.1622171034
1718178583	2.512683955	1.297742494	-10.14490814	0.02134891047	0.142024084	-0.03232197056
1718178583	2.640270763	1.55199125	-10.28531498	0.004871729945	-0.001005857934	-0.01346653205
1718178583	2.69179549	1.67218897	-10.38363623	-0.005251670446	0.003442983291	-0.1504385412
1718178583	2.679584828	2.062804929	-10.01018754	0.1001838675	-0.2351483358	-0.2531853933
1718178583	2.296585189	2.219766884	-10.26397057	0.1510472233	-0.1579401333	-0.1345900695
1718178583	2.030645265	2.012310421	-10.34070544	0.1146652886	-0.1601659368	0.0432395828
1718178584	1.696884728	1.925589146	-10.24535823	0.1277435567	-0.1353448843	0.0296761325
1718178584	1.695665999	1.65891287	-10.18565282	0.1490387837	-0.1728269042	-0.1254564673
1718178584	1.786755991	1.378442317	-10.00049383	0.06297262444	-0.2485484137	-0.2193979684
1718178584	1.755127219	1.267913611	-9.852256736	0.0176803915	-0.375326949	-0.210685337
1718178584	1.459561242	1.211190146	-9.786592716	-0.04155509596	-0.4255989083	-0.1239758745
1718178584	1.283029493	1.341583681	-9.863647899	-0.07945433754	-0.4495127633	-0.08055463086
1718178584	0.9366939171	1.621585303	-9.920846873	-0.02125382521	-0.3640535884	-0.03268982801
1718178584	0.5834906835	1.712822886	-10.0063975	-0.0006991572883	-0.2336860606	-0.04533505365
1718178584	0.3121647189	1.74698746	-10.33654715	-0.05619975638	-0.04209938367	-0.05655589592
1718178584	0.4220236353	1.804008593	-10.58401268	0.006471698351	0.08777760644	-0.02838623458
1718178584	0.7598357865	1.63292795	-10.53783194	-0.0547091227	-0.02836036239	-0.1754861371
1718178584	0.7235757017	1.743840248	-10.34154481	0.02174404659	-0.07506757027	-0.2629274363
1718178584	0.559369036	1.520706761	-10.08359413	0.08009045853	-0.07070859974	-0.1844910837
1718178584	0.3512180877	1.193914894	-9.894017318	0.04061619436	-0.07420577134	-0.183541284
1718178584	0.1185152563	1.251135349	-9.996028078	0.08396307758	-0.04433997184	-0.1547930759
1718178584	0.08535400522	1.113410593	-10.16941831	0.09729133331	-0.07548760903	-0.1292000478
1718178584	0.05805699737	0.8799524775	-10.44916581	0.01526660632	-0.06999636227	-0.1035834842
1718178584	-0.1896286918	0.9049353084	-10.43685578	0.008615329247	0.0950088711	-0.05376673402
1718178584	-0.1074613081	1.017517366	-10.38790207	0.09364494979	0.2545870982	0.0009792043464
1718178585	0.3980716818	0.9068297439	-10.00685109	0.07930801348	0.2295207435	-0.04335463136
1718178585	0.7883548287	0.8262989941	-9.965448231	0.006253530842	0.0635311559	-0.09983107353
1718178585	0.8492031921	0.9979730731	-9.971997214	0.044203102	0.1710208649	-0.1671207653
1718178585	1.168875437	1.030348791	-9.963253936	0.1529395157	0.097981117	-0.06683656741
1718178585	1.215876769	0.8420006403	-9.927318699	0.1301509878	0.06124732882	0.0779136822
1718178585	1.128932426	0.7992826846	-10.24080013	0.04312721405	0.1316663264	0.1523117254
1718178585	1.331964351	0.8057957928	-10.4093061	0.03400040495	0.1035586835	0.140154445
1718178585	1.336186206	0.862656621	-10.1911672	0.03740871643	-0.08341802838	0.06624185025
1718178585	0.9619349605	1.059523374	-10.23467901	0.03959945771	-0.127515407	-0.004762125261
1718178585	0.6500085073	1.031244205	-10.38403605	0.02724031174	-0.05905704111	-0.01848405446
1718178585	0.8002929576	0.9215276929	-10.52974333	-0.01063496659	-0.0178027908	-0.01860040547
1718178585	1.123629059	0.828542316	-10.56243447	-0.02148305472	-0.1604737982	-0.0724669352
1718178585	1.028575863	0.9537531154	-10.64655886	-0.03852983651	-0.2116267312	-0.1718828302
1718178585	0.7180169716	1.008700803	-10.813427	-0.07078595625	-0.1678650689	-0.1284900325
1718178585	0.449582308	1.182932896	-10.93765543	-0.03915852978	-0.1627642665	-0.08383222483
1718178585	0.3031348238	1.089933564	-10.72709896	-0.07428706433	-0.1870498822	-0.1837426023
1718178585	0.07821575084	1.135346165	-10.41719714	-0.06885101575	-0.1637512174	-0.384557998
1718178585	-0.1151058132	1.264551441	-10.36552307	-0.03676798068	-0.06851864909	-0.4649140236
1718178585	-0.1914837816	1.13760527	-10.10631567	-0.116519656	0.1097262816	-0.4057682784
1718178586	0.008215153765	1.119567874	-9.745725283	-0.146169677	0.2118311621	-0.3168996248
1718178586	0.3597251827	0.9814403829	-9.704607091	-0.1690129746	0.1367627928	-0.221072381
1718178586	0.3478614707	0.7691914247	-9.67636124	-0.1833650826	0.05669933211	-0.3152168732
1718178586	0.04981602418	0.8236495025	-9.902610959	-0.1693971688	0.1374597088	-0.405308517
1718178586	-0.04317895165	1.143562936	-9.689735101	-0.08179994163	0.2217290499	-0.4778546895
1718178586	0.03700564244	1.317830904	-9.73554525	-0.03920683286	0.2608864728	-0.5320995192
1718178586	0.4085326144	1.282415307	-10.11883262	-0.003685683871	0.2614134458	-0.4547503356
1718178586	0.855123522	1.398805598	-10.53513028	0.06842110249	0.1264875434	-0.4618619411
1718178586	0.9996554732	1.170163358	-10.83914479	0.05133844293	0.005163338802	-0.4961961796
1718178586	1.185357785	1.029997347	-10.80350415	0.07210410447	-0.1461806792	-0.5158383908
1718178586	0.9836563784	0.9099228876	-10.5266325	0.07548041017	-0.2232426742	-0.4575431261
1718178586	0.5950582986	0.8051794145	-10.42820486	0.02200946596	-0.163092135	-0.4339260804
1718178586	0.2270040443	0.9790449391	-10.56168043	0.0172878426	-0.1424848774	-0.3720037567
1718178586	-0.1100233223	1.14802693	-10.84138351	-0.01845827589	-0.1163843674	-0.2901358879
1718178586	-0.5772633334	1.320245271	-11.14810786	-0.07759397803	0.1632767752	-0.3371567932
1718178586	-0.5548994894	1.732453615	-10.48552892	0.003579208662	0.1711206835	-0.3554227161
1718178586	-0.453896591	1.706925937	-9.873216522	0.01527804647	0.1034540712	-0.1898604825
1718178586	-0.4676932073	1.657402758	-9.615562195	0.07470222618	0.1255776161	-0.08999408883
1718178586	-0.2429532355	1.390090084	-9.977065019	0.02232060224	0.2595393294	-0.143103796
1718178587	0.3498747102	1.391377932	-10.33564465	0.06915848186	0.1412458584	-0.3081106606
1718178587	0.7644819318	1.096948923	-10.59925584	0.01877215647	0.03438725406	-0.4437121987
1718178587	0.9612363838	1.222159868	-10.36854505	0.01632930746	-0.1024364024	-0.5502662393
1718178587	0.7396675893	1.389480866	-10.11865609	0.08243966622	-0.1538977544	-0.6104627014
1718178587	0.4082168629	1.412407422	-10.067134	0.1029050605	-0.1050389599	-0.6655993239
1718178587	0.2401796609	1.258025401	-10.16897525	0.06400334684	-0.1144775857	-0.7402824835
1718178587	-0.04401790496	1.008717462	-10.51783545	0.01884053729	-0.0184878349	-0.7952242957
1718178587	-0.1085052276	0.9103901398	-10.57007884	-0.04316442756	0.08413665743	-0.9110925092
1718178587	-0.2350596327	0.9013109805	-10.46011274	-0.08892367284	0.1871480696	-0.8769497853
1718178587	-0.09413540544	0.9885478768	-10.68415647	-0.1394550157	0.2477266787	-0.7783056994
1718178587	0.05128651686	0.9296410759	-10.23636477	-0.1505839997	0.1421819761	-0.6981755764
1718178587	-0.1837427755	0.9248201586	-10.17628995	-0.08017049484	0.2349567047	-0.6686459802
1718178587	-0.05200506322	0.8262356465	-9.95424996	-0.06640850172	0.2477383966	-0.6596241225
1718178587	0.1542512716	0.9036156041	-9.879765505	-0.04597227736	0.1843423628	-0.6893641084
1718178587	0.3404306631	0.8677559169	-9.947972195	-0.06201693244	0.1619121049	-0.6798172086
1718178587	0.6572051408	1.149177049	-10.00260629	0.01636643463	0.02766977143	-0.6658990627
1718178587	0.8170100645	1.140264698	-10.20512091	0.03473908469	0.005833660089	-0.6137190816
1718178587	0.9902414559	1.133291936	-10.22895654	0.06428810534	-0.1097952658	-0.5141615647
1718178587	0.726444389	0.9289498057	-10.14862336	0.01968251648	-0.1275197763	-0.4983241119
1718178587	0.327438422	0.9643431176	-10.45646766	0.02270763861	0.01109406643	-0.4789726513
1718178588	0.2832491334	0.9748264447	-10.54228716	0.06269337951	0.0966206578	-0.3914378086
1718178588	0.1575560122	0.7918650288	-10.41046579	-0.0205387519	0.1069770172	-0.294639959
1718178588	0.005336008999	1.103492207	-10.30736197	0.03834029018	0.2019895168	-0.2628573951
1718178588	0.1304795335	1.192405877	-10.37220299	0.07726767422	0.2555361323	-0.2219628422
1718178588	0.4226157925	1.131021873	-10.5843213	0.006212218556	0.1837169361	-0.3235316283
1718178588	0.518603493	1.378887722	-10.3645703	0.1196392246	0.07204098756	-0.3627864896
1718178588	0.4677679896	1.198695114	-10.30334514	0.1358167881	0.04794229668	-0.3101652561
1718178588	0.4559256492	0.9486763235	-10.32341996	-0.01076145946	0.03344060016	-0.3257128571
1718178588	0.5261911351	1.314134387	-10.44241926	-0.04121671222	0.02063633178	-0.34381919
1718178588	0.6062031948	1.626826418	-10.41925115	-0.007559919027	-0.009708382105	-0.3217147865
1718178588	0.6101018462	1.655442856	-10.22845853	0.02498877756	-0.01303476289	-0.2368955359
1718178588	0.6298834187	1.445455705	-9.992249729	0.003467190229	-0.01703819517	-0.1550182794
1718178588	0.5993742256	1.337258512	-9.808146376	-0.08263654872	-0.03344713531	-0.1514872607
1718178588	0.6638934595	1.616825541	-9.881148484	-0.06328674845	-0.1273818745	-0.2670453824
1718178588	0.3514087879	1.775520457	-9.938054028	-0.03173464991	-0.08899472099	-0.2798482297
1718178588	0.1253658803	1.84903373	-10.20880574	-0.02498717551	0.01528615975	-0.1893035823
1718178588	0.1349210139	1.850787441	-10.45829721	-0.03211581692	0.05836284239	-0.1217828196
1718178588	-0.05002554788	1.636270246	-10.51425233	-0.06207177691	0.1117949752	-0.1438681066
1718178588	-0.1189353084	1.463633459	-10.5210246	-0.06923699518	0.1993162524	-0.2233297429
1718178589	0.1929026902	1.291196287	-10.54197971	-0.07639136106	0.2459795951	-0.1570317956
1718178589	0.4907121908	1.021152362	-10.29814055	-0.04497760334	0.05315770653	-0.1817562503
1718178589	0.5464504081	1.093739678	-10.41359532	-0.03208429175	0.05627583124	-0.2951865729
1718178589	0.743749671	1.366593912	-10.3326554	0.08051057219	-0.08759646155	-0.3115517643
1718178589	0.6657645141	1.215107392	-10.21799208	0.09250695609	-0.276116392	-0.2702575042
1718178589	0.1655935352	1.164556259	-10.23145947	0.08119694371	-0.2025520264	-0.2098893181
1718178589	0.007562497972	1.088287477	-10.48683357	0.05095680778	-0.04403895557	-0.1595367317
1718178589	0.371631784	1.068967129	-10.47275946	0.02743607072	-0.06681830395	-0.1889610165
1718178589	0.4991407407	1.047658384	-10.2437847	0.004451604319	-0.112221031	-0.1608137507
1718178589	0.4171556639	1.031456167	-10.04941597	0.0178771242	-0.03594497652	-0.09728733857
1718178589	0.4204614275	0.8885758559	-9.949901118	-0.01405657307	-0.02728710639	-0.03111582906
1718178589	0.4077181927	0.9069667412	-10.02751393	0.02840593365	-0.05684283488	0.01574022559
1718178589	0.1865775606	0.8049065158	-10.16495958	-0.0223705698	-0.04701426411	0.003397607864
1718178589	-0.1348100187	0.8582185654	-10.6232376	-0.04976435244	0.05911887638	-0.0886407952
1718178589	-0.1771591776	0.9422990436	-11.01188153	0.004471152546	0.175207454	-0.0780941613
1718178589	0.05908318948	0.9751141756	-11.18253854	-0.08333924042	0.1119527675	-0.08804612798
1718178589	-0.06481322103	1.362058899	-10.42073233	-0.04788329518	-0.09094264856	-0.040596462
1718178589	-0.7862919048	1.378822548	-9.997512764	-0.02223224147	0.0689908858	-0.008143314633
1718178589	-0.7705532876	1.28588196	-9.815307938	-0.02233951901	0.2680992618	-0.06585611217
1718178589	-0.2442006235	1.271599898	-9.932316361	-0.0654901772	0.1649536846	-0.2476445867
1718178590	0.1228575781	1.448981395	-10.05769748	0.009978304925	0.1090477498	-0.4129528213
1718178590	0.4868679365	1.543055956	-10.09229533	0.020972456	0.07348482034	-0.4636598745
1718178590	0.7813600014	1.520602278	-10.04987307	-0.009031127756	0.01722351997	-0.4087550136
1718178590	0.9352265479	1.639572649	-10.07174237	0.009142509267	-0.05862240073	-0.3132342164
1718178590	1.022388041	1.768983457	-10.0652986	0.03358321036	-0.1850285429	-0.2631330656
1718178590	0.8190659741	1.762052927	-10.13505895	0.01550569577	-0.2355011214	-0.2550672328
1718178590	0.3408530533	1.744677283	-10.28367948	0.006232070549	-0.1635723861	-0.2784299133
1718178590	0.003304978096	1.785636632	-10.40368884	0.0348974221	-0.09585940153	-0.3041359925
1718178590	-0.2818185161	1.614149161	-10.45255838	-0.01737268404	0.002024964313	-0.2469336892
1718178590	-0.413881428	1.510480112	-10.35414126	-0.03899218208	0.06121986913	-0.1856363096
1718178590	-0.5038360955	1.370443135	-10.15594275	-0.03555597607	0.1169497066	-0.221238246
1718178590	-0.5847773623	1.008246411	-10.09015481	-0.07108343134	0.1716647673	-0.3095501325
1718178590	-0.333082748	1.003046212	-10.14988944	-0.04313675149	0.1500686281	-0.403196031
1718178590	-0.008588905282	1.108561327	-10.44643843	0.05344653883	0.114788335	-0.3615648311
1718178590	0.3205501969	0.8931305966	-10.45678096	-0.04222254655	0.002167021721	-0.2489191423
1718178590	0.2854461137	0.9838976399	-10.36154715	-0.08875461205	-0.03808665738	-0.1637792305
1718178590	0.1777533258	1.313873983	-10.33807626	0.02640274758	-0.0009267569778	-0.1256541321
1718178590	0.1043758728	1.220030966	-10.2738338	0.05644559944	-0.02417893108	-0.1612190505
1718178590	-0.001265508728	1.080098764	-10.28531498	0.005611411494	0.02369113984	-0.197881491
1718178591	0.02094268181	1.148363395	-10.44856376	-0.0002855144706	0.04586244277	-0.1610399363
1718178591	0.06176214007	1.251785045	-10.4609603	0.06503252961	0.1053948165	-0.1148482228
1718178591	0.1423177914	0.9558858896	-10.1477419	0.03612161068	0.1390442148	-0.05729378711
1718178591	0.3079850951	0.8719073374	-9.900926367	-0.02112623275	0.1066834037	-0.0367014391
1718178591	0.528177852	0.9089771312	-9.966190574	-0.03908384059	0.1343018489	-0.08636286869
1718178591	0.8444518328	1.086422414	-10.1664957	0.01905702732	0.0374127403	-0.1415265222
1718178591	0.8676123437	1.033479125	-10.32090184	-0.01116054351	-0.03701458107	-0.1665272632
1718178591	0.6835818372	1.033509154	-10.4521913	-0.06695147449	0.03056770057	-0.1886296693
1718178591	0.5444088923	1.290696229	-10.50464512	-0.01310617722	0.03437845315	-0.2613186539
1718178591	0.4753524534	1.294344814	-10.2612128	0.05461019875	-0.07661723874	-0.2677423483
1718178591	0.0681246654	1.108351337	-10.24056866	-0.06442574916	-0.01773191118	-0.2603754621
1718178591	-0.07942218576	1.570258143	-10.19030679	-0.007611425707	0.08279732875	-0.3173189063
1718178591	0.02850957568	1.770287964	-10.15421373	0.1080226658	-0.01064329729	-0.2867946527
1718178591	-0.01772576901	1.482553702	-10.25795818	0.04624372006	-0.03478077981	-0.2122059021
1718178591	-0.064637764	1.400050483	-10.3923421	-0.06902166196	0.02431978734	-0.1826951977
1718178591	0.1639729848	1.699553801	-10.30400448	-0.04001185653	0.02086563828	-0.2429004482
1718178591	0.3949094549	1.810111294	-10.08906877	0.0661759495	-0.04349503405	-0.2291454376
1718178591	0.4454161648	1.584642935	-9.923373176	-0.04073393521	-0.116856729	-0.1717558973
1718178591	0.3494564483	1.700110704	-9.896217458	-0.03449194958	-0.167041736	-0.1520743046
1718178592	0.05305017466	1.698877655	-9.930658657	-0.0535079455	-0.1387327997	-0.1429409271
1718178592	-0.2847623875	1.636359386	-10.04237599	-0.01793382249	-0.08341816986	-0.1628108386
1718178592	-0.4802396774	1.517215704	-10.26877885	-0.007962506801	0.01562671979	-0.1639607083
1718178592	-0.5071187704	1.204963526	-10.43522263	-0.09743230608	0.1060879874	-0.1959493676
1718178592	-0.3129461516	1.137206991	-10.54990115	-0.1681771415	0.1164473179	-0.3058200092
1718178592	-0.1480045866	1.367457251	-10.72724626	-0.1609047642	0.1590474424	-0.3352131184
1718178592	0.09504178883	1.629660765	-10.54584106	-0.1058533546	0.1038919032	-0.3227718617
1718178592	0.04672429154	1.543062385	-10.22776996	-0.04557360215	0.08174254219	-0.3789037741
1718178592	-0.1012996528	1.514246479	-9.937849445	-0.05081989218	0.07781048471	-0.4744026003
1718178592	-0.2766178422	1.598656701	-10.01840358	0.01315295835	0.1051310387	-0.4442504236
1718178592	-0.2069899965	1.713485149	-10.33128645	0.1455018062	0.09769641676	-0.4029732909
1718178592	-0.09976161129	1.258436758	-10.75137415	0.1230676617	0.2049168302	-0.4467320902
1718178592	0.2988140197	1.07504981	-10.75537462	0.03483722218	0.1603441189	-0.4263747537
1718178592	0.5930390312	1.152575021	-10.47835099	0.07562799091	0.1191757014	-0.3335072638
1718178592	0.6784281808	1.156608295	-10.24653546	0.1263739179	0.132206324	-0.2535339844
1718178592	0.7802250791	1.093057249	-10.09938441	0.1089452597	0.09080398941	-0.204374311
1718178592	1.062647205	1.006155211	-10.04810898	0.05602026764	0.002453708672	-0.2930631014
1718178592	1.101970769	1.268528674	-10.15378001	0.1864929653	-0.1841253984	-0.2916903084
1718178592	0.7307332453	1.128750713	-10.55936923	0.2445784894	-0.1612067667	-0.2605147455
1718178592	0.4984910081	0.5658256283	-11.02804473	0.05706292018	-0.008588683072	-0.1790940546
1718178593	0.5206774498	0.7662778753	-10.90318267	0.005604797284	-0.1054727806	-0.1092252661
1718178593	0.01090909871	1.182611848	-10.42739588	0.1332803935	-0.134265272	-0.02384861172
1718178593	-0.6884157602	0.8759147465	-9.987757093	0.080941971	0.03041191813	-0.05031078316
1718178593	-0.8321428247	0.6026668374	-9.735850371	-0.06893883765	0.2210635426	-0.1164768374
1718178593	-0.5910835132	0.9565715338	-9.652966336	0.01857117311	0.209723037	-0.172492794
1718178593	-0.37933012	0.9246209828	-9.850521875	-0.04928987284	0.1604302222	-0.2211929389
1718178593	-0.03162626009	1.127178349	-9.864965411	-0.05239820211	0.1633364301	-0.2075766956
1718178593	0.6166737354	1.19788387	-10.07674354	-0.01791947263	0.09244856628	-0.2780883962
1718178593	1.242218029	1.259163026	-9.997527961	-0.04906028339	-0.2130132394	-0.3502658708
1718178593	0.8826574257	1.569377269	-10.00117304	0.06136121224	-0.149499444	-0.4884213138
1718178593	0.5179220136	1.202869696	-9.973515802	0.009273859285	-0.1714847709	-0.4537877028
1718178593	0.193432267	1.041622684	-10.40284245	-0.1769250264	-0.2006502963	-0.4189282557
1718178593	-0.4017665543	1.417956289	-10.76203466	-0.0198940859	0.05970603266	-0.3821601876
1718178593	-0.3837199524	1.578852661	-10.85485908	0.1995671221	0.08618463663	-0.09849877726
1718178593	-0.317208193	0.920086335	-11.0912935	-0.03243872104	0.1508229518	-0.2127325422
1718178593	-0.2185728823	0.7959368082	-10.67972112	0.1532982768	0.03433149621	-0.2932336103
1718178593	-0.3321613589	0.1049789623	-10.36109356	-0.005569429256	-0.1556840031	-0.4123918264
1718178593	-0.4806263752	-0.09988440655	-9.90559202	-0.06746250598	-0.06967714497	-0.6242271829
1718178593	-0.5278244354	0.1958504341	-9.821557646	-0.1874066626	-0.1263148956	-0.4770271455
1718178594	-0.6344003116	0.2519430726	-9.949770185	-0.297927465	-0.03446704279	-0.2609822135
1718178594	-0.8453929131	0.6599021979	-10.30203113	-0.1408667074	0.2675639664	-0.1287216609
1718178594	-0.6584921119	1.428111772	-10.53207206	0.1511079433	0.3019638518	-0.07357440242
1718178594	-0.1298829376	1.023040367	-10.14848658	0.09202974259	0.04721561573	-0.16053069
1718178594	-0.1314341125	0.8177757882	-10.30942066	0.09137214986	0.1860450882	-0.5816636103
1718178594	0.2741694809	0.8931396567	-9.893617505	0.3031580465	0.04882298325	-0.5808496817
1718178594	0.4080049372	0.3883876154	-10.2049514	0.08952527261	0.007494394342	-0.4126159314
1718178594	0.4216983123	0.2995511201	-10.57585392	0.02396210192	0.1653951035	-0.3029207256
1718178594	0.8386033991	0.191907907	-10.55191892	0.05074410444	0.1582526886	-0.1858917899
1718178594	1.200498656	0.2468957626	-10.25197151	-0.01299709373	-0.04055679338	-0.1367552611
1718178594	0.8724944166	0.5523182042	-10.03558151	0.08242994568	-0.1088815186	-0.1598720902
1718178594	0.5444119611	0.5098846184	-10.09867947	0.1088947095	0.03967489591	-0.1524089142
1718178594	0.5966580254	0.3673462156	-10.12542953	0.0259041206	-0.2250393259	0.005904318122
1718178594	0.07575277196	0.2523572611	-10.56208609	-0.07778115665	-0.185035567	-0.03201517024
1718178594	-0.2625247637	0.6498126925	-10.51955394	-0.04828717188	-0.1082808343	-0.1478363498
1718178594	-0.2441288917	0.963238079	-10.6012549	-0.04165709919	-0.1430766484	-0.1612590812
1718178594	-0.4109425981	1.073608744	-10.58348076	-0.01693885926	-0.1132750603	-0.136365574
1718178594	-0.470929084	1.022792969	-10.46224858	-0.1010059936	-0.05722742863	-0.09448759061
1718178594	-0.2666496068	1.279741412	-10.0589577	-0.06899781834	-0.1411937103	-0.04758829183
1718178595	-0.3673420875	1.406303114	-9.926367097	0.02019450504	-0.1394253547	-0.06028482079
1718178595	-0.464102051	0.9800228443	-10.20897291	-0.03826426525	-0.04147730253	-0.1040849907
1718178595	-0.3232975959	0.9619507426	-10.37893083	-0.02554480607	0.01713372775	-0.1351153281
1718178595	-0.1934677037	0.8275592233	-10.28803651	-0.06814913965	0.01464345575	-0.1879372308
1718178595	-0.1172598677	0.7138645281	-10.22223337	-0.08564223394	-0.009937235027	-0.2987496494
1718178595	-0.1784768909	0.7193920594	-10.20003557	-0.08469877583	-0.02547281125	-0.4225134364
1718178595	-0.3446626016	0.6994158776	-10.60137882	-0.09830097929	0.05436525451	-0.4735168995
1718178595	-0.2541397241	0.6460705834	-10.79609358	-0.1110001215	-0.01993110176	-0.4388655784
1718178595	-0.4288147933	0.57802734	-10.37057217	-0.1022072041	-0.1226309948	-0.4393277367
1718178595	-0.9346714713	0.8053593011	-10.09582233	-0.05148167106	-0.005246438791	-0.43133326
1718178595	-1.014880003	0.8854157844	-10.17642907	-0.01625223808	0.1267910772	-0.3497088041
1718178595	-0.599308613	0.6985371951	-10.31172952	-0.01075793805	0.03840452646	-0.2926172549
1718178595	-0.388177151	0.6002335824	-10.49466967	-0.02384846608	-0.05766462814	-0.317904036
1718178595	-0.5353950168	0.7010188559	-10.47143142	0.05140174294	-0.01975131134	-0.3061936174
1718178595	-0.6081658732	0.5637776097	-10.32743562	0.007011888329	-0.0194186846	-0.2142258932
1718178595	-0.6457211854	0.4870389457	-10.05129228	-0.00520213773	-0.0378033969	-0.04452405452
1718178595	-0.7171029255	0.4596048857	-9.992021765	0.008304344853	-0.009901690149	-0.01971674434
1718178595	-0.5580555422	0.5353024066	-10.33671549	0.02543000302	0.009429507527	-0.005039464361
1718178595	-0.3543879864	0.5294885693	-10.51021328	0.03533150904	0.01633465043	0.002156615497
1718178596	-0.1729828783	0.5770060342	-10.71748007	-0.006072936791	-0.04443660713	-0.07503509635
1718178596	-0.1529360243	0.7499379312	-10.6593669	0.09608180877	-0.04580078643	-0.1315135359
1718178596	-0.3101025987	0.6025536228	-10.72364677	0.04531222121	-0.02841037364	-0.2250039225
1718178596	-0.4870306527	0.8089447584	-10.51721585	0.06778567641	-0.09631424448	-0.1677032319
1718178596	-0.9827847102	0.6622231882	-10.12379404	0.06704495561	-0.05193473718	-0.03721813813
1718178596	-1.22764619	0.4795107056	-9.889680165	0.03530909687	0.1882919139	-0.00603941061
1718178596	-0.9344120167	0.2125448724	-9.825187527	-0.09713017045	0.2578657824	-0.04826602056
1718178596	-0.3264638048	0.5085360168	-9.735965521	-0.07034807431	0.05063109486	-0.05831000361
1718178596	-0.1286625289	0.6546786911	-10.04551136	-0.09673623899	-0.08376462215	-0.1580186133
1718178596	-0.236373437	0.8839150976	-10.27953522	-0.080870307	-0.06871418337	-0.239490387
1718178596	-0.2072560636	1.118343227	-10.24447677	-0.04653425429	-0.1131194651	-0.3250058211
1718178596	-0.3730830057	1.260005761	-10.22840125	-0.003983137639	-0.150762831	-0.2758001916
1718178596	-0.6464459925	1.195462707	-10.20668509	0.01728016416	-0.07207728145	-0.2550442464
1718178596	-0.7322865392	1.020195865	-10.30667107	-0.03905990127	0.03756580132	-0.2255506029
1718178596	-0.641895855	0.8744779186	-10.19719479	-0.1084998127	0.04438693086	-0.2332488695
1718178596	-0.628633857	1.097018335	-10.10371104	-0.01786576	-0.006732477998	-0.237572628
1718178596	-0.7948913909	0.8545902189	-10.17262734	-0.07357647469	0.04210568371	-0.2186391838
1718178596	-0.8726313409	0.8144879987	-10.45721117	-0.109460082	0.02350229051	-0.239606301
1718178596	-1.004448772	0.7384170048	-10.53790208	-0.1013170925	0.0510789262	-0.229939226
1718178596	-1.151403493	0.6640080989	-10.41675641	-0.06349606043	0.07269067403	-0.2900864196
1718178597	-1.127944292	0.7926088329	-10.36850647	-0.03933518891	0.1119931393	-0.2474875601
1718178597	-0.9595752456	0.7526856225	-10.34747186	-0.0783804095	0.1098577252	-0.1426876771
1718178597	-0.7474989406	0.7323799896	-10.28837086	-0.07595773186	0.05626944797	-0.1029367188
1718178597	-0.6527785566	0.9197694511	-10.26078376	-0.031927546	-0.002638519568	-0.1298740107
1718178597	-0.6692972913	0.9776179751	-10.17594976	0.01713997786	-0.01945773112	-0.1312697152
1718178597	-0.6724211955	0.9130483261	-10.18998296	0.04906936726	-0.02020446692	-0.1131803682
1718178597	-0.5349778143	0.7432944015	-10.19792311	0.0412982632	-0.01661452577	-0.0630659183
1718178597	-0.5408248964	0.628847719	-10.17104913	0.001293391751	-0.02691222486	-0.02927700579
1718178597	-0.4352179018	0.6239617005	-10.2412315	-0.01310910254	-0.08277454208	0.04417373649
1718178597	-0.6645042849	0.6861794525	-10.52650507	-0.02293719061	0.04020902199	0.05218109207
1718178597	-0.6230048381	0.7127834549	-10.37387238	-0.01654267868	0.1014614441	0.05106616384
1718178597	-0.6181288296	0.7636683504	-10.27840242	0.003445949699	0.1175680926	-0.01550501749
1718178597	-0.5451474723	0.7980560654	-10.39609123	-0.07210946408	0.1461168299	-0.07380945135
1718178597	-0.5067321822	1.479046425	-10.42368417	0.04847692627	0.02185708738	-0.07169526763
1718178597	-0.7747020778	1.34459017	-10.25278516	0.1154944638	0.05794143044	-0.0171948317
1718178597	-0.9029200231	0.9110404204	-10.17812301	0.09375045258	0.1452530336	-0.06217450003
1718178597	-0.6654515757	0.6347562854	-10.10105146	0.008336241408	0.1786893207	-0.02680120849
1718178597	-0.2239142981	0.6216788502	-10.0920849	-0.02081969042	0.04889057761	-0.02427770731
1718178597	0.1024563485	0.5951201483	-10.053856	-0.07190896967	-0.06255243587	0.001830580862
1718178597	0.2381054302	0.7436375159	-9.97934933	-0.09533876186	-0.1406524728	-0.03066245501
1718178598	0.166268384	0.9235263194	-9.893023631	-0.07651154453	-0.212979617	-0.1395481681
1718178598	-0.3851112606	1.088217846	-10.00442298	-0.05490211033	-0.01930882504	-0.2030903345
1718178598	-0.5541993783	1.108078	-10.07188499	-0.081072133	0.09383518272	-0.3010261195
1718178598	-0.4354182467	1.206403496	-10.13756304	-0.04955045067	0.06221925778	-0.3191807888
1718178598	-0.4755081919	1.189814619	-10.30384198	-0.06704081939	0.03059178346	-0.28434288
1718178598	-0.6476333026	1.098129438	-10.71903723	-0.1429953721	0.1560703779	-0.2736890039
1718178598	-0.4412422401	0.9320486485	-10.70919622	-0.2354219423	0.1185101442	-0.2016857833
1718178598	-0.3348612655	1.208456337	-10.64746253	-0.1970291629	-0.0505956124	-0.1536717852
1718178598	-0.5558945283	1.195865224	-10.77201946	-0.1792683086	-0.046940274	-0.2905447497
1718178598	-0.7942104228	1.534332551	-10.12047279	-0.1211612046	0.0749323982	-0.3879961057
1718178598	-0.6623707069	1.60397775	-9.733928463	0.007779608491	0.07323311001	-0.3617247872
1718178598	-0.5293965801	1.258223553	-9.867773454	0.01344595913	0.06798626654	-0.3180495778
1718178598	-0.1985285855	1.077397323	-9.908840793	0.05669764683	-0.08956696773	-0.3201176555
1718178598	-0.2059274636	0.8662060571	-10.01632619	0.08164774198	-0.1501583433	-0.3468038279
1718178598	-0.3634257543	0.7197221681	-10.12429205	0.05520042598	-0.1063082558	-0.3794815136
1718178598	-0.4113895382	0.7145470305	-10.13717375	0.01354134815	-0.09895743186	-0.2737923013
1718178598	-0.51494603	0.676510949	-10.1041845	0.01761708525	-0.06004527777	-0.2004695343
1718178598	-0.5662182443	0.5755042148	-10.18554761	0.003616930623	0.005958072365	-0.1667372035
1718178598	-0.4647622684	0.5086278963	-10.33226377	-0.07794068832	-0.007966747573	-0.2052149378
1718178599	-0.7555428385	0.5991856807	-10.29288453	-0.1146648225	-0.005973597241	-0.3152631123
1718178599	-1.132853107	0.8447703242	-10.53724976	-0.08175819658	0.1201301118	-0.3457680913
1718178599	-1.144112606	1.142500056	-10.59838139	-0.07826470348	0.2016380628	-0.3557723225
1718178599	-0.8785917106	1.565676953	-10.64489648	0.08739338719	0.02681059197	-0.3649982449
1718178599	-1.119270425	1.029306515	-10.59556049	-0.03201992024	0.06124561857	-0.4214592241
1718178599	-1.167575387	0.9634257836	-10.45320603	-0.06071884114	0.1189872828	-0.482499076
1718178599	-1.015412868	1.138503899	-10.2873117	-0.06347754314	0.1170061323	-0.5381996561
1718178599	-0.8857483043	1.186847001	-10.35012326	-0.07220511318	0.08254694167	-0.5105562771
1718178599	-0.6628526452	1.224204014	-10.18386068	-0.06045955744	0.003514723233	-0.4900302293
1718178599	-0.8041389655	1.292148181	-9.955253	-0.05050745761	0.008235134914	-0.5486354859
1718178599	-0.8345243131	1.258110595	-9.936336703	-0.05702613526	0.06763963948	-0.5621392439
1718178599	-0.7231541884	1.406295515	-9.881360081	-0.05036540293	0.02936638814	-0.5549313319
1718178599	-0.8408821577	1.346832542	-9.884770182	-0.06411968953	0.02314385399	-0.5787630949
1718178599	-0.9550243043	1.409800016	-9.970982484	-0.01569653935	0.06123462054	-0.6592386299
1718178599	-1.015562871	1.190281579	-10.19805755	-0.04817190278	0.1010754855	-0.6960167514
1718178599	-1.020608829	1.06509869	-10.42137881	-0.07486119193	0.1724565251	-0.6629052701
1718178599	-0.8770984764	0.8971685469	-10.65547281	-0.1677340747	0.2633941053	-0.6169282573
1718178599	-0.6677971889	0.8640193607	-10.44722286	-0.216409835	0.2109889041	-0.4923604952
1718178599	-0.5832234839	0.9281765564	-10.22841528	-0.2283018314	0.1711062025	-0.4689768756
1718178600	-0.5880210569	1.238392041	-9.926011708	-0.1656116019	0.2124054727	-0.5478614714
1718178600	-0.4396705704	1.57343312	-9.800002817	-0.1159689559	0.2028017976	-0.5722837572
1718178600	-0.184436055	1.768369417	-10.09744613	-0.03387330975	0.1759320835	-0.5359120673
1718178600	0.1917125671	1.660406032	-10.36440313	-0.007346297618	0.1116036936	-0.537932075
1718178600	0.4686345068	1.446537363	-10.53530797	0.01252321542	0.00870435633	-0.5284439977
1718178600	0.4593435313	1.444683698	-10.4245516	0.01704547101	-0.018971492	-0.5606338921
1718178600	0.4386595667	1.441504191	-10.3404576	0.07814341313	-0.07443119128	-0.5020360924
1718178600	0.2002243566	1.275585607	-10.21323174	0.04529815639	-0.1009327151	-0.4503113121
1718178600	-0.0455056867	1.079231553	-10.24563529	0.03440165802	-0.04496642639	-0.3801370507
1718178600	-0.182255076	0.9576382862	-10.24728247	-0.01101335497	-0.01212209447	-0.2969861707
1718178600	-0.3081567619	1.060341486	-10.43284947	0.002703993799	0.04363471268	-0.2604417249
1718178600	-0.3711715826	1.299917938	-10.50738069	-0.0130731457	0.03855804105	-0.2095250809
1718178600	-0.5998924042	1.466999575	-10.45142908	0.100130288	0.106220979	-0.1808508754
1718178600	-0.675273297	1.494445654	-10.43142324	0.087099782	0.2373399177	-0.1350484162
1718178600	-0.365870444	1.626523782	-10.04240054	0.1861680263	0.1324406821	-0.09935622359
1718178600	-0.2341864118	1.33376877	-9.858201324	0.1197105724	-0.02077298316	-0.01106847408
1718178600	-0.3380368999	0.8740207494	-9.886606749	-0.04212644804	-0.1007092592	-0.0158072301
1718178600	-0.4899532622	1.108302822	-10.31497245	0.021308497	-0.05746679688	-0.07492582352
1718178600	-0.3610902971	1.257579995	-10.54265658	0.07854139759	-0.1128044298	-0.1444704637
1718178600	-0.269293381	1.225895255	-10.56732691	0.02620778546	-0.1555656755	-0.1633844668
1718178601	-0.2603017356	1.194756313	-10.36486957	0.02834010572	-0.1702933558	-0.2035136439
1718178601	-0.3746699461	1.186626417	-10.26419503	0.02677614773	-0.08864606327	-0.226384888
1718178601	-0.3292852555	1.21468924	-10.09671431	0.04665083	-0.1062498577	-0.2595126645
1718178601	-0.5137514499	1.03157709	-9.978353305	-0.0303574773	-0.05164502271	-0.2739180857
1718178601	-0.614532924	0.9865240428	-9.92132618	-0.06486070578	0.02914299261	-0.2972273532
1718178601	-0.5693547888	1.089460174	-9.813494751	-0.08898009025	0.006637186765	-0.2612530736
1718178601	-0.5990962854	1.190710179	-9.942373645	-0.06810872201	-0.01461409648	-0.2645379496
1718178601	-0.7640243973	1.158374647	-10.18569725	-0.09982270954	0.07207225473	-0.2614891295
1718178601	-0.8136848656	1.229703415	-10.28643141	-0.1786229248	0.1231177707	-0.2646379513
1718178601	-0.7616415207	1.246838382	-10.34210946	-0.1127223461	0.1196666302	-0.2201633609
1718178601	-0.6961382442	0.9210893746	-10.47820135	-0.1801853348	-0.008619217358	-0.2446774092
1718178601	-0.852584432	1.206897344	-10.58469072	-0.03190439106	0.01535524589	-0.326980089
1718178601	-0.7875916623	1.194085939	-10.3936865	-0.04211483417	-0.07565518844	-0.3537677279
1718178601	-0.9105834704	1.07467272	-10.36544474	-0.0457425714	-0.0847044517	-0.3601596807
1718178601	-1.009055827	0.9518953587	-10.41544708	-0.08674676336	-0.06452150228	-0.3534039401
1718178601	-0.9507134554	1.222946196	-10.57396358	-0.03537342886	0.0105234696	-0.3346697337
1718178601	-0.7657977636	1.254867813	-10.48196334	0.06710972036	-0.05367006959	-0.2732379976
1718178601	-0.7505193844	1.027749787	-10.31913775	0.07068711968	-0.07557504393	-0.2729362947
1718178601	-0.9458481144	0.9206298673	-10.2419528	-0.0003569346189	-0.02134031761	-0.2305362734
1718178601	-0.9718803082	0.9940374872	-10.09205333	0.07049869271	0.02075207526	-0.1431373186
1718178602	-0.9683051531	0.833722276	-10.14363271	0.04127823956	0.05447984117	-0.009953980693
1718178602	-0.7771515899	0.8807995959	-10.37509637	0.045890381	0.1039112194	0.02089354945
1718178602	-0.5588988612	0.8556148127	-10.54661847	0.01349880311	0.08211476056	-0.005001854492
1718178602	-0.3969789182	1.044623984	-10.45633205	0.1035596655	-0.02718386313	0.01501003363
1718178602	-0.6857714562	0.9292772841	-10.46549268	0.1431984714	0.03946131455	-0.02763817344
1718178602	-0.7831831982	0.5621387564	-10.74319085	-0.005027512385	0.1292554666	-0.05539541515
1718178602	-0.6265955561	0.9030303516	-10.24088547	-0.03431344913	0.01324560203	0.005263671836
1718178602	-0.7672907056	1.047196392	-10.10222635	0.008160238709	-0.07069436847	0.08459798351
1718178602	-1.007034039	1.098912989	-10.0564653	0.04748802382	0.03909478452	0.006905660971
1718178602	-0.9840922126	0.8709473333	-9.973509957	-0.06358042854	0.08550073686	0.009958298967
1718178602	-0.7241162383	1.186863221	-9.964484939	0.002843552543	0.00756951733	-0.08579634774
1718178602	-0.4513891383	1.149604043	-9.883338103	0.02734336151	-0.1416127254	-0.2243703897
1718178602	-0.5240772117	1.103663399	-9.975738154	0.006313668348	-0.1905378243	-0.2931368376
1718178602	-0.7617846555	1.19417464	-9.976121601	-0.003061205885	-0.09858592921	-0.2927763455
1718178602	-0.7959686647	1.218336876	-9.934501304	-0.01486082587	-0.01078424613	-0.177019835
1718178602	-0.6466289479	1.277816873	-9.933045844	-0.008725838989	-0.07309486698	-0.1388587506
1718178602	-0.6828090993	1.252346624	-10.18371806	-0.01326393415	-0.106252937	-0.1687758367
1718178602	-0.9171481627	1.183725435	-10.36518171	-0.03911343913	-0.09646482127	-0.174505195
1718178602	-1.235051644	1.026811556	-10.57877653	-0.03350321566	-0.02811904463	-0.2138367221
1718178603	-1.59762955	0.9941690046	-10.51138466	-0.07664208104	0.1485319009	-0.1711888604
1718178603	-1.581546868	0.8454011694	-10.4574216	-0.07154231896	0.2253434589	-0.1924957137
1718178603	-1.406452313	0.7628039156	-10.32368884	-0.07825580685	0.2532612601	-0.2773268487
1718178603	-1.10982046	0.6222705325	-10.1652986	-0.07937743044	0.1739586312	-0.2895959985
1718178603	-0.9710987294	0.7445197055	-9.904825128	-0.08498079627	0.05611273343	-0.2460605718
1718178603	-0.9827821529	0.8639673382	-10.02647699	-0.06668798383	0.1005653903	-0.1253629321
1718178603	-0.6597410891	1.016364105	-10.36159625	0.03997912045	0.1024234195	-0.1043276546
1718178603	-0.217283153	0.876737388	-10.28699723	0.03396291055	-0.110851359	-0.1316831376
1718178603	-0.1590292448	0.9049907649	-10.21768345	0.06340979065	-0.241623812	-0.16112574
1718178603	-0.369996036	0.9403978131	-10.06154947	0.09153371219	-0.2710898586	-0.2125368332
1718178603	-0.7196753333	0.9172177938	-9.97659857	0.1353793639	-0.2510352402	-0.1606439243
1718178603	-1.17840972	0.5904362283	-10.23256304	0.06412159952	-0.1271457853	-0.1092618513
1718178603	-1.375277569	0.8016793705	-10.37458199	0.07449797837	0.01140070654	-0.05280045179
1718178603	-1.280820877	0.879275382	-10.46905943	0.1848873621	-0.02092949588	0.01747415672
1718178603	-1.415518832	0.5676856865	-10.60087262	0.2135186241	-0.06528773118	0.07215755079
1718178603	-1.817607641	0.1767816495	-10.50019341	0.05258321275	0.1318088971	0.0278780556
1718178603	-1.790241203	0.4040902115	-10.37639751	-0.01230617819	0.1372902153	-0.005157046564
1718178603	-1.762980125	0.6430011859	-10.37242277	0.07033323551	0.2078995706	0.02986780728
1718178603	-1.698421728	0.6799133779	-10.25080247	0.07865354164	0.2914359432	0.003668922601
1718178604	-1.420210497	0.5557241036	-10.02547629	0.04006611011	0.2851661962	-0.06558191477
1718178604	-1.12795474	0.4941607238	-9.808112474	-0.03471212018	0.2144279605	-0.07266739633
1718178604	-1.047347491	0.797337688	-9.700837509	0.06701220289	0.244939148	0.00625933102
1718178604	-0.595781754	0.5489904845	-9.781620188	-0.01916643331	0.1964167024	0.06354795878
1718178604	-0.2595432454	0.4319235364	-9.567941782	-0.05656167581	0.09122358708	0.01653031995
1718178604	-0.1306392998	0.4496219094	-9.771101717	-0.02874950224	0.02719828997	-0.08254937181
1718178604	0.07834589829	0.6510223606	-9.862783975	-0.04206642705	-0.1106667686	-0.106046517
1718178604	-0.02243650284	0.4783358896	-10.2352121	-0.06792431059	-0.05403262569	-0.04972086801
1718178604	-0.2259297661	0.6067946579	-10.47069259	-0.06268932235	-0.06693177958	-0.12242956
1718178604	-0.2439691528	0.4244424965	-10.68925	-0.01399636898	-0.1143393094	-0.1354380366
1718178604	-0.6026167512	0.1206359291	-10.95399282	-0.1265747785	0.03318588337	-0.1605208696
1718178604	-0.493896593	0.6507585951	-10.78306693	-0.002017577552	0.06613224869	-0.309753032
1718178604	-0.6001960268	0.6441343546	-10.56582002	-0.007508617806	0.05059407692	-0.2570255384
1718178604	-0.6031592605	0.5366184577	-10.66594511	-0.04667508557	0.07566596592	-0.1801913103
1718178604	-0.6566767331	0.4085759055	-10.52880575	-0.04715466263	0.2630693328	-0.1613788901
1718178604	-0.1322116728	0.2533342164	-10.01138698	0.005507462907	0.1703061889	-0.09401586155
1718178604	0.3518237619	0.1008284185	-10.14202996	-0.04169044696	0.06247580341	-0.1308404219
1718178604	0.6176582895	-0.03517265715	-9.970664504	-0.05058135617	-0.08262112736	-0.1334013176
1718178604	0.3759817594	0.08490797849	-9.978511126	-0.06484923754	-0.07932644755	-0.1736000532
1718178605	0.1563887037	0.1641346051	-9.926084189	-0.07526274668	-0.01884165249	-0.1399041744
1718178605	-0.1031523406	0.4137591899	-10.03680199	-0.0164838894	0.02707122806	-0.05269294747
1718178605	-0.08979312932	0.3239599688	-10.44986958	0.04071106531	0.06794538286	-0.08446822931
1718178605	-0.1168651419	-0.08912126707	-10.82814876	-0.1277507389	0.09166431528	-0.2213463037
1718178605	-0.158495759	0.3842473373	-10.64268348	0.00042155909	0.032541569	-0.4060604938
1718178605	-0.4858348671	0.4293614674	-10.44194463	-0.01344510088	-0.07590150587	-0.4723886513
1718178605	-0.8452679715	0.1706225789	-10.5965495	-0.119725561	0.1022409763	-0.4496240834
1718178605	-0.7491543796	0.4892843865	-10.40285765	-0.04186910346	0.08058075481	-0.4064801414
1718178605	-0.5266751193	0.4849954206	-10.19189201	-0.1044582743	-0.01719818874	-0.3012151706
1718178605	-0.3334873468	0.6146423027	-10.34938793	-0.1300153663	-0.1585571212	-0.375199317
1718178605	-0.4563355817	0.9430765308	-10.47627711	-0.08083874854	-0.06752383774	-0.4803832611
1718178605	-0.2701135931	0.9858569572	-10.44233977	-0.03923419684	-0.1950489861	-0.5391915172
1718178605	-0.4785083601	1.050502959	-10.23349477	-0.02935237949	-0.1370027353	-0.5315626592
1718178605	-0.6382739381	1.009573202	-10.0288747	0.008708280851	-0.08930233274	-0.5489670495
1718178605	-0.7078440988	0.8884154047	-9.931488678	-0.02984618782	-0.01477066539	-0.5589662207
1718178605	-0.7560164474	0.7604471964	-9.876661694	-0.06655222919	0.0521323479	-0.592614795
1718178605	-0.6677298228	0.7041846995	-10.00039913	-0.08576635389	0.02450766295	-0.6255678848
1718178605	-0.8018379951	0.6452091442	-10.26674238	-0.1514965651	0.1073941597	-0.6242034808
1718178605	-0.7753696749	0.6658480276	-10.46344568	-0.1796010706	0.1843971574	-0.6300826752
1718178606	-0.6753191819	0.8288451714	-10.49177863	-0.1501281997	0.2084987985	-0.6263376715
1718178606	-0.5653445302	0.635432358	-10.29878236	-0.163218968	0.1401342882	-0.5508421146
1718178606	-0.6564715659	0.5268672078	-10.14556982	-0.1521287663	-0.003991938034	-0.6623139152
1718178606	-0.9760469994	0.5341673017	-10.18061775	-0.1077168184	0.190097171	-0.7555442607
1718178606	-0.7163062222	0.6394879901	-10.22785063	-0.1376543193	0.1706395002	-0.7422490948
1718178606	-0.3274793751	0.7866677524	-10.48396708	-0.1276316291	0.1051940142	-0.6468322274
1718178606	-0.06105287755	0.988635482	-10.53600706	-0.0777231996	-0.05137450796	-0.5163850712
1718178606	-0.1773815699	1.056954766	-10.38728716	0.01754381295	-0.04977959071	-0.5611382283
1718178606	-0.2203454084	0.8482457452	-10.15004024	0.04407116734	-0.0251566649	-0.5730675255
1718178606	-0.2300292008	0.7322771868	-9.970637616	0.005864055496	-0.04921698129	-0.5569411863
1718178606	-0.3431927482	0.7755144171	-10.04300961	0.01525300755	-0.05244982999	-0.4876528587
1718178606	-0.6086366325	0.7491284415	-10.06686745	-0.006870999305	0.03542630925	-0.3985725836
1718178606	-0.5795840314	0.8338963174	-10.30271619	0.01809083248	0.07326026593	-0.3286214951
1718178606	-0.5119083793	1.041386683	-10.38195749	0.07363970812	0.005625781121	-0.2565970524
1718178606	-0.7517861164	0.8509672061	-10.46224157	0.009444151792	0.1007288501	-0.2563041047
1718178606	-0.8523555186	1.207489099	-9.95566918	0.06199457021	0.1305141098	-0.2521425327
1718178606	-0.7816681905	1.118489577	-10.15592872	0.1076819143	0.08206353632	-0.162529925
1718178606	-0.677704908	0.9449909861	-10.43294884	0.04782532149	0.03816608615	-0.1530391346
1718178606	-0.7269807609	0.9504882683	-10.56895773	0.02231867977	0.08421243269	-0.1714207884
1718178606	-0.4455123917	0.9892262875	-10.57850882	0.005581026491	0.01583680783	-0.2591154541
1718178607	-0.2033526629	1.098326714	-10.46674239	0.02688533525	-0.07319369522	-0.2425717975
1718178607	-0.1915843741	1.07923579	-10.36321888	0.01879406097	-0.1013508064	-0.2154299582
1718178607	-0.357859535	1.03608748	-10.12931894	0.00501734868	0.008603948395	-0.2103286232
1718178607	-0.2922206311	0.9551155628	-9.983760133	-0.008469700109	0.01011352901	-0.2269183525
1718178607	-0.1773859173	0.947846887	-10.27694696	-0.0503484877	-0.03523017576	-0.2775382371
1718178607	-0.1856319503	1.077705731	-10.56888174	-0.05573089022	0.01140670802	-0.2441453262
1718178607	-0.1422181395	1.051641681	-10.44804587	-0.09583341906	-0.08932272257	-0.2066668932
1718178607	-0.5707790859	0.9781345463	-9.947766444	-0.06000239255	-0.07504957728	-0.2128165816
1718178607	-0.9672256143	0.7811880789	-9.775682615	-0.1285242707	0.13356536	-0.2268872101
1718178607	-0.7879829997	0.9103300801	-9.950892467	-0.1426495606	0.2489617529	-0.3390892828
1718178607	-0.4225381607	0.9080127431	-9.966285266	-0.150789912	0.1750889932	-0.4082336332
1718178607	-0.343761415	1.040171754	-9.604501288	-0.007116590611	-0.01217061809	-0.4519496888
1718178607	-0.6064390129	1.075606494	-9.942177245	0.04390928459	0.05200518195	-0.5179267418
1718178607	-0.6066292382	0.972048139	-10.20030679	0.03920319182	0.1643909586	-0.331752274
1718178607	-0.3692236269	0.5628489871	-10.28069258	-0.1107661461	0.09620434747	-0.1981497212
1718178607	-0.2479644878	0.8234964308	-10.40436455	-0.03760919836	0.02662675063	-0.1610312311
1718178607	-0.04950757472	0.9680802583	-10.51404424	0.05527963006	-0.02950624987	-0.1408868143
1718178607	0.04939202661	0.7879840226	-10.43166757	0.003636011756	-0.1869811726	-0.09648341346
1718178607	-0.4603261857	0.7566380134	-10.32490932	0.002663434688	-0.05705046158	-0.1081783775
1718178608	-0.6739243666	0.6864087312	-10.43883147	0.03889422353	0.1640198971	-0.1135668595
1718178608	-0.3401096875	0.5590018101	-10.50948847	0.01903655635	0.1274700584	-0.1226776251
1718178608	-0.1970610702	0.6722355367	-10.60181254	0.003249402169	0.08136996595	-0.133352898
1718178608	-0.286582954	0.8253643436	-10.84471645	0.0605552315	0.117764043	-0.1647511844
1718178608	-0.2486193898	0.7328969262	-10.75112982	0.007846970862	0.2156798792	-0.1169887552
1718178608	-0.1093177496	0.8944631604	-10.25735963	-0.0173334149	0.1874447957	-0.1025654076
1718178608	-0.009622871989	0.9339235756	-9.886033918	-0.04108832705	0.06767394016	0.0097329997
1718178608	-0.1212323515	1.189052548	-9.975289241	0.02079832688	0.1085058298	0.07646400711
1718178608	-0.05610395904	1.059456593	-10.04811015	0.03709233705	0.07290719734	0.01726775342
1718178608	0.03555406453	1.194916545	-10.33542604	0.04057141164	0.05729836026	-0.1168311876
1718178608	0.2641406744	1.201692103	-10.42188384	0.0562550669	-0.05076918392	-0.1015781904
1718178608	0.3311482363	1.125843301	-10.429748	0.05663552443	-0.1771074862	-0.1150627155
1718178608	-0.05085632701	1.179726501	-10.48851232	0.0797875406	-0.06702348803	-0.1382169371
1718178608	-0.14860732	1.022184043	-10.29543656	0.08110097004	0.009455846814	-0.169131119
1718178608	-0.1318872631	0.81980839	-10.07745198	0.04667605097	0.01170736746	-0.1846864266
1718178608	-0.1924945295	0.6234686563	-9.972138668	0.03377075724	0.02642034316	-0.1919450885
1718178608	-0.1839450749	0.3076967066	-10.08799441	-0.0877629757	0.1023822487	-0.1844204267
1718178608	-0.03468098976	0.4258047978	-10.43313939	-0.08331310815	0.07175902537	-0.2214010983
1718178608	0.02090582953	0.3428067811	-10.45150858	-0.1262340687	0.0319752998	-0.218291608
1718178609	-0.06300684747	0.3689711134	-10.37365611	-0.1205375671	0.07101779274	-0.2699459143
1718178609	0.1306696766	0.5149281655	-9.962342081	-0.05562739313	-0.01014852565	-0.3177256375
1718178609	0.149167639	0.4898431164	-9.87550551	-0.123287231	-0.1201137001	-0.3446470669
1718178609	0.1010125247	0.7678594454	-10.27494906	-0.03724833171	-0.07729393965	-0.4145360372
1718178609	0.2438617287	0.7351759039	-10.50964279	0.01997445511	-0.142799663	-0.4468719395
1718178609	0.2134425337	0.8301042316	-10.64698906	0.1212383946	-0.1733107506	-0.4499986903
1718178609	0.07270700192	0.6079294341	-10.51175642	0.08386452398	-0.1927824696	-0.371047582
1718178609	-0.1959006116	0.5321529296	-10.2663753	0.05669481306	-0.1564200675	-0.2440899824
1718178609	-0.4823207946	0.4029304104	-10.16969888	0.04467736938	-0.05585281723	-0.09248972045
1718178609	-0.4655370522	0.1498606902	-10.22311717	-0.05397398205	-0.01155924889	-0.05988000366
1718178609	-0.4693221602	0.2796515838	-10.31593223	-0.05361656502	0.03402813511	-0.128497972
1718178609	-0.4049281236	0.4234626186	-10.39743446	-0.01329803301	0.06746986296	-0.2116708398
1718178609	-0.3049198989	0.4416404091	-10.52589016	-0.02525389733	0.1340263282	-0.2365900214
1718178609	-0.03869345853	0.5606861465	-10.36999349	-0.0688239805	0.01617573877	-0.2691353813
1718178609	-0.081323672	0.8461888127	-10.36760981	-0.0364622914	-0.0979296098	-0.2641168373
1718178609	-0.3923496144	1.045827369	-10.03118356	0.00629194278	-0.1320237726	-0.2044563364
1718178609	-0.7335737294	1.049010821	-9.961543625	0.05000052489	-0.06917008742	-0.115378558
1718178609	-0.7364278037	0.8868887065	-10.00880339	-0.0278852274	-0.01286345922	-0.04238808698
1718178609	-0.4955797603	0.8897339399	-10.14112745	-0.04493710665	-0.05471629659	-0.07358988205
1718178610	-0.4271413436	0.9921045464	-10.2863905	-0.00221722985	-0.09202444124	-0.1213342351
1718178610	-0.6023343906	0.9899595702	-10.42790909	0.02758248008	0.005981512863	-0.1703962038
1718178610	-0.5910886643	0.9202761585	-10.40508936	0.06753731167	0.1023960805	-0.2105697225
1718178610	-0.1890675507	0.7703381105	-10.28887238	0.06613192412	-0.03669595882	-0.2105900957
1718178610	-0.1094236668	0.7033527056	-10.4359147	0.04936067131	-0.1725225715	-0.2814479573
1718178610	-0.3303406463	0.6442138496	-10.68250695	-0.0103712273	-0.08592962231	-0.2639179657
1718178610	-0.4426171452	0.7069407202	-10.46988127	-0.0420394459	-0.05848470698	-0.2220770086
1718178610	-0.6264628696	0.7649743915	-10.28510689	-0.0007296885186	-0.03382744928	-0.1876766239
1718178610	-0.8386080022	0.6501810144	-10.30596847	-0.08472559054	0.04769981587	-0.1498340868
1718178610	-0.7705221618	0.6038640843	-10.24532666	-0.1688400189	0.00608332624	-0.07655801669
1718178610	-0.7675809207	0.5757045231	-10.03041784	-0.1450180596	-0.1773321738	-0.06733779514
1718178610	-1.296348409	0.5584244486	-9.976984355	-0.1083411216	-0.1072887901	-0.1429912276
1718178610	-1.614016621	0.6230022809	-10.05111459	-0.07158802547	0.1001015924	-0.2394647873
1718178610	-1.351271109	0.6459945225	-10.1543318	-0.07997701619	0.1205068492	-0.2094616811
1718178610	-1.083053376	0.7545301544	-10.19568088	-0.07921763245	0.02997908164	-0.1701492122
1718178610	-0.9066197544	0.87236268	-10.51807744	-0.07237215164	0.01092537702	-0.1231251194
1718178610	-0.6923452817	0.9553983253	-10.45226612	-0.05131191119	-0.07009163686	-0.1227702365
1718178610	-0.588823642	1.204401801	-10.38402553	0.009134863082	-0.1518281287	-0.1469449565
1718178610	-0.6805693576	1.196270663	-10.20701827	0.06210483756	-0.2570097092	-0.1204840209
1718178611	-1.039329166	1.035896269	-10.30056983	0.05727877771	-0.2139891548	-0.1449856023
1718178611	-1.32281746	0.9593618221	-10.36893785	0.04830255164	-0.1568848058	-0.07449887718
1718178611	-1.542438701	0.9752283765	-10.480488	0.07843079318	-0.1021383864	0.09485494871
1718178611	-1.783582476	0.7400636029	-10.47996778	0.03318553799	0.07652853051	0.2273878511
1718178611	-1.51313428	0.7525080009	-10.48408983	0.03220036396	0.1235404893	0.1280126941
1718178611	-1.323246791	0.8579497584	-10.31149103	0.07715684511	0.02448578758	-0.03011910149
1718178611	-1.37321976	0.8072828896	-10.1235953	0.04833168829	0.07860009533	-0.1003038845
1718178611	-1.332436791	0.902390154	-10.14560372	0.06538403358	0.1197965259	-0.04495030594
1718178611	-1.18343427	0.9549250817	-10.00834512	0.06784928851	0.09062201228	0.07029699987
1718178611	-1.11389012	0.8616376532	-9.999439348	0.03115575983	-0.003924900496	0.1042455127
1718178611	-1.222540026	0.7981755271	-10.03420905	-0.02207709153	0.06399440029	0.1131211961
1718178611	-1.149917858	0.968339713	-10.20038862	-0.002093092603	0.09956214419	0.02013579066
1718178611	-0.9029295216	1.022975339	-10.20718077	0.03152170105	0.08703673999	-0.0136666041
1718178611	-0.6409134929	0.9593073885	-10.26782608	0.005333793075	-0.04087103807	-0.03270867611
1718178611	-0.7343249131	0.8474788525	-10.26339891	-0.02315424864	-0.05334364094	-0.06736788886
1718178611	-0.9862998787	0.8329689734	-10.17424763	-0.009890824244	0.06984944733	-0.15647388
1718178611	-1.049874525	0.864534982	-9.899107334	-0.04070356269	0.1058790125	-0.2347044202
1718178611	-1.096446088	0.785245976	-9.84815573	-0.05792213917	0.1603173042	-0.2471793824
1718178611	-0.8923857696	0.6667416155	-10.1923643	-0.06534841796	0.2278237773	-0.2107244355
1718178611	-0.5131560413	0.2724442097	-10.32500635	-0.1436821681	0.05279686901	-0.1799506104
1718178612	-0.5930775366	0.1435225458	-10.47465915	-0.135632231	0.04166118132	-0.2265139681
1718178612	-0.6769680451	0.2400928411	-10.31307626	-0.1145920766	0.02589427314	-0.2753357696
1718178612	-0.882971387	0.3209331318	-10.12470356	-0.1379467927	0.0328657506	-0.3601237613
1718178612	-0.9324929582	0.5382860986	-10.23926166	-0.1532442646	0.08808821424	-0.3711809065
1718178612	-0.6628499418	0.8284756075	-10.15667223	-0.09648559392	-0.03547529893	-0.3125443911
1718178612	-0.6895858269	0.9428983247	-10.11313821	-0.05493647759	-0.08708380304	-0.347260094
1718178612	-0.7390390091	0.9085117787	-10.02350762	-0.07196380582	0.005807226655	-0.2996814894
1718178612	-0.679850834	0.9331134282	-10.01161026	-0.07274149047	0.03634965633	-0.2178233244
1718178612	-0.5866635048	0.9984251277	-10.0075303	-0.04980209443	0.07993055235	-0.1443522527
1718178612	-0.3247255829	0.8621271172	-10.14150038	-0.06669573613	0.05185143433	0.006380277544
1718178612	-0.2019520572	0.9189123228	-10.27324694	-0.06640750303	-0.009097374928	0.04444929044
1718178612	-0.3011904848	1.027688266	-10.37327149	-0.0842534204	-0.003885382202	0.03567951761
1718178612	-0.4665186106	1.414439659	-10.41090184	0.06039924101	-0.0322477932	0.001862778843
1718178612	-0.6355882793	1.18768937	-10.60204167	0.0454809283	0.02395426016	-0.01164193276
1718178612	-0.8648056887	1.288600133	-10.48564699	0.06225044173	0.007497428889	-0.06552125296
1718178612	-0.9908054465	1.529986777	-10.38602576	0.05594122585	-0.01067334316	-0.07298119161
1718178612	-0.9141219467	1.6374238	-10.32625021	0.03564691053	-0.04799189806	-0.04342442283
1718178612	-1.055529628	1.696564117	-10.21916346	0.08617836156	-0.1545157409	-0.06754420677
1718178612	-1.346030724	1.651462408	-10.22066802	0.1556583702	-0.03318215286	-0.05356839093
1718178613	-1.382982298	1.25541098	-10.23879755	0.08741777176	0.09518553855	0.04041163862
1718178613	-1.175786824	0.8948570551	-10.35136361	-0.01456079373	0.05413874433	0.08610931078
1718178613	-0.9654395346	0.9108421213	-10.30972695	-0.03695021164	0.02628659838	0.1137147065
1718178613	-0.8095821064	1.016487512	-10.2942301	0.02234483909	-0.004691201433	0.03439712857
1718178613	-0.5891538969	1.090094015	-10.33713986	-0.02905671868	-0.01774915931	-0.1054364034
1718178613	-0.4297806792	1.240832712	-10.49556984	-0.03550375314	-0.05630454344	-0.2188000887
1718178613	-0.3768031222	1.325994336	-10.47594159	-0.006228840426	-0.05924819365	-0.2415983955
1718178613	-0.6884263547	1.28304133	-10.30318615	0.0112284614	0.009356917662	-0.2496941222
1718178613	-0.9377825891	1.129922606	-10.37766826	0.00105555001	0.1550098905	-0.2129364571
1718178613	-1.031682962	0.8038106104	-10.06562827	-0.08846034939	0.1629707947	-0.07707401248
1718178613	-0.8990072336	0.6150627931	-10.19755018	-0.1042894465	0.2334720757	-0.06600732147
1718178613	-0.5468619115	0.5229169358	-10.13909916	-0.1139973095	0.1319658738	-0.2134959373
1718178613	-0.4334212276	0.5060532601	-10.01430725	-0.08799543637	-0.003195780564	-0.4057151484
1718178613	-0.6579096359	0.5946132217	-10.02739352	-0.07663906834	-0.07819404648	-0.4726442814
1718178613	-0.773627069	0.7595703405	-10.24707555	-0.03643082032	0.04112783338	-0.3456689218
1718178613	-0.4725007172	0.7623168627	-10.33705568	0.002158904932	-0.05313665507	-0.2811972207
1718178613	-0.3094138493	0.6365859851	-10.29251161	-0.01441977935	-0.114030649	-0.3787093633
1718178613	-0.3409556734	0.6984620841	-9.969598336	-0.02632441319	-0.1153795734	-0.4141322687
1718178613	-0.4124977551	0.6255260272	-9.656113402	-0.03441899561	-0.1673409255	-0.2542315329
1718178614	-0.7419101806	0.6168566177	-9.616848728	-0.04744672402	-0.03202340107	-0.1493170174
1718178614	-0.6826707868	0.4890914577	-9.882393516	-0.1075553725	0.01866884871	-0.0856363417
1718178614	-0.5340905101	0.706104927	-10.11661611	-0.09587398234	-0.02939396018	-0.09173004542
1718178614	-0.6443398141	0.7287970896	-10.24660209	-0.09405620844	-0.03628950218	-0.1250819602
1718178614	-0.8386766104	1.061424532	-10.29007766	0.002741077537	0.05046865868	-0.1577055421
1718178614	-0.8295126954	1.082092787	-10.2923456	0.005080392257	0.1302990262	-0.1617907314
1718178614	-0.5703398908	1.005243649	-10.32860467	-0.001493802295	0.04591295961	-0.2166730053
1718178614	-0.4212485958	1.045761683	-10.45737952	-0.04145556448	-0.117059512	-0.3109728597
1718178614	-0.6651097034	1.191932049	-10.23175407	0.002943317835	-0.1940928614	-0.2330125805
1718178614	-1.039584164	1.015843149	-10.08659974	-0.04811410386	-0.2131456651	-0.07897223048
1718178614	-1.344344232	1.105373125	-10.22794415	-0.01040245182	-0.2078610214	-0.03238239102
1718178614	-1.599124464	0.9779990833	-10.33787986	-0.04350876181	-0.06852563156	-0.1142663055
1718178614	-1.446784616	1.03538642	-10.27726962	-0.001023011461	-0.1312912368	-0.2080309643
1718178614	-1.658311544	0.8889942275	-10.15040966	-0.03130994021	-0.1181687519	-0.288966627
1718178614	-1.650951244	0.866469238	-10.25617773	-0.03546977287	-0.08070156245	-0.362418241
1718178614	-1.564615315	0.9218228034	-10.19003206	-0.04946864585	-0.1070612813	-0.3857140096
1718178614	-1.551474678	0.9786064016	-10.05935284	-0.01107931398	-0.232953941	-0.4411366556
1718178614	-1.753874589	0.9664343178	-10.09410617	-0.05021771816	-0.1781283924	-0.4668004072
1718178614	-1.834147272	0.9477760868	-10.21094392	-0.1112661213	-0.2230833173	-0.528272357
1718178614	-2.103066212	1.2098673	-10.19385016	-0.04259856825	-0.1617552114	-0.5357780771
1718178615	-2.548927527	1.252535863	-10.29449898	-0.04029136361	0.02919351361	-0.5282227223
1718178615	-2.675697465	1.160337691	-10.24118825	-0.1137238445	0.193321793	-0.4847449198
1718178615	-2.505518886	1.181900704	-10.12046811	-0.1210925533	0.3383152017	-0.4119932177
1718178615	-2.052926947	0.9739345373	-10.02672249	-0.2152486635	0.3259323016	-0.3461749225
1718178615	-1.524186128	1.10251664	-10.05647582	-0.1643758785	0.0760518746	-0.3898176413
1718178615	-1.736715803	0.9827518308	-10.25098834	-0.1262804909	0.06773876317	-0.5178453822
1718178615	-2.032280611	0.7926658968	-10.11169795	-0.1201181858	0.1382520159	-0.4897290923
1718178615	-2.201355029	0.5991396862	-10.01514896	-0.2162673393	0.1223187808	-0.3727103267
1718178615	-2.109730346	0.814244253	-10.10017468	-0.1836579138	0.06334892078	-0.3320944236
1718178615	-2.06430905	0.9779213419	-10.20604562	-0.1751244632	0.1001304128	-0.3319204526
1718178615	-1.823691199	1.18595692	-10.18540966	-0.1630363251	0.08577470956	-0.4128973942
1718178615	-1.607438412	1.414984433	-9.919080447	-0.1385807165	0.03547204488	-0.4276932847
1718178615	-1.471498786	1.65472974	-9.822340906	-0.01188108151	0.01372377156	-0.4059641539
1718178615	-1.287368399	1.476389042	-9.767076699	-0.05340334569	-0.0469793767	-0.3281258475
1718178615	-1.280733053	1.489674494	-9.793275555	-0.006156664599	-0.08635140045	-0.2038275307
1718178615	-1.508229703	1.26763684	-9.773528652	-0.0004716719665	-0.07257170563	-0.1251244876
1718178615	-1.595532139	1.105477316	-9.95286932	-0.04038016338	0.03971665344	-0.04910199515
1718178615	-1.414794464	0.9797894008	-10.12576622	-0.1233937824	0.07950551184	0.006286551439
1718178615	-1.153591286	1.174643426	-10.32759695	-0.05471845624	0.03580894724	-0.03613695714
1718178616	-1.241817924	1.244577744	-10.34230235	-0.03997451402	0.07279522807	-0.08035346233
1718178616	-1.3606087	1.230889118	-10.26984385	-0.03134125316	0.2282974871	-0.1475257254
1718178616	-1.232223581	1.255412442	-10.12678562	0.004117075396	0.2795383709	-0.2343170634
1718178616	-0.9764742119	1.409636204	-10.1349362	0.04124420935	0.1506041565	-0.3537281134
1718178616	-0.971037793	1.617274161	-10.47548683	0.08716600317	0.08510818692	-0.3562752272
1718178616	-1.188442746	1.644446246	-10.23391563	0.0576446461	0.1188996565	-0.3225311453
1718178616	-1.272012863	1.681542928	-10.04648284	0.04686229748	0.1501556968	-0.215926671
1718178616	-1.004677978	1.57590857	-10.02522612	0.07041210669	0.01229417941	-0.1314037887
1718178616	-0.9353004169	1.309200876	-10.12166287	0.05669709339	-0.08089562367	0.009278198365
1718178616	-1.06291024	0.9728408969	-10.18817445	-0.06691210132	-0.03249029898	0.04794964951
1718178616	-0.9602785716	1.05471897	-10.19646999	-0.1034940186	-0.07320863389	0.06134608632
1718178616	-0.9418026384	1.348657273	-9.988841966	-0.03184469048	-0.09749740372	-0.02881281473
1718178616	-0.9275961992	1.473094385	-9.829165783	0.04136862475	-0.1899219183	-0.1925756252
1718178616	-1.187414718	1.404897777	-9.753875857	0.06343802016	-0.1748471782	-0.3600989273
1718178616	-1.788752864	1.248725657	-9.832561855	0.007183473925	0.06783387131	-0.3679379753
1718178616	-1.898034053	1.228891514	-10.02228013	0.0303253113	0.1958551916	-0.2202373135
1718178616	-1.904101683	0.8772568818	-10.21722519	-0.1665817249	0.3817081826	-0.09043832907
1718178616	-1.593441596	0.9673498252	-10.45467669	-0.1436893919	0.3971317136	-0.03860649394
1718178616	-0.9657963121	0.9148527452	-10.5387625	-0.1165061987	0.2169961133	-0.05971445074
1718178616	-0.7311334236	0.7783294015	-10.45520743	-0.1022148024	0.02686534698	-0.2108425301
1718178617	-0.9150565972	0.7621795731	-10.1876402	-0.1155523127	-0.02403408009	-0.3639125407
1718178617	-1.147574144	0.8331061168	-10.29874495	-0.07712927307	0.08027795339	-0.3484588827
1718178617	-1.152305776	0.8716359732	-10.26099185	-0.08098429029	0.1301519032	-0.3377705853
1718178617	-0.720661714	0.9003601095	-10.39004259	-0.07959836462	-0.007603683815	-0.2432119049
1718178617	-0.6811603823	1.018236109	-10.41620696	-0.02145768395	-0.04893258481	-0.2723417274
1718178617	-0.8038824335	1.036831577	-10.37820018	-0.00357475775	0.04467172681	-0.3343456269
1718178617	-0.5572249001	1.049388203	-10.09345852	0.002023792158	-0.1251476654	-0.3912809484
1718178617	-0.8972478957	1.049193703	-10.02618473	0.04326849891	-0.06968850501	-0.3613574041
1718178617	-0.9118872465	0.8978258418	-10.06359063	-0.01034860915	-0.04365901819	-0.2217228414
1718178617	-0.9183842803	0.9074573012	-10.22871689	-0.05864560352	0.02949009405	-0.0547640712
1718178617	-0.7076300907	0.9739628866	-10.37709777	-0.07499489926	-0.02447321663	0.01408918743
1718178617	-0.8572456288	1.114179459	-10.28939845	-0.04189628435	0.01714351695	-0.01931109289
1718178617	-0.9688991735	1.193989128	-10.23858362	-0.0386988016	0.1607599549	-0.05443448837
1718178617	-0.7082209693	1.360534027	-10.21247186	-0.00446819238	0.04117380619	-0.1690793705
1718178617	-0.8858289684	1.425593359	-10.30565166	-0.03798236549	0.1213749482	-0.1112724047
1718178617	-0.6759953276	1.478789235	-10.38401383	-0.03790840451	0.02134696927	0.01114391332
1718178617	-0.8858953847	1.37867028	-10.58734328	-0.1632586325	0.012741062	0.172521373
1718178617	-0.818126136	1.729281853	-10.48477489	-0.04838917095	-0.1788415204	0.1455812849
1718178617	-1.241546706	1.814627602	-10.22401733	-0.003377261209	-0.1491823281	-0.03813544316
1718178618	-1.452219208	1.782647971	-10.10034887	0.03753849144	-0.04945261695	-0.1868658245
1718178618	-1.22636448	1.655174268	-10.04969888	-0.007968412048	-0.1058714225	-0.1234570991
1718178618	-1.341760499	1.728102288	-9.889470907	-0.05511168862	-0.07411211961	-0.01608066704
1718178618	-1.361226101	1.76503545	-9.8401244	0.03942544926	-0.0395766211	-0.04250962283
1718178618	-1.241658349	1.700599364	-9.804275672	0.03444271647	0.02821438995	-0.1093105289
1718178618	-0.9741691498	1.612861606	-9.941299293	0.009671172751	0.03395235362	-0.2692778105
1718178618	-0.6689454822	1.593774482	-10.15682304	-0.01199395377	-0.0356044664	-0.4053874464
1718178618	-0.875988104	1.448269886	-10.30578259	-0.02672015893	-0.07939019697	-0.3363325781
1718178618	-1.316927671	1.097803494	-10.45099887	-0.107139237	0.06081524341	-0.2725352559
1718178618	-1.467443958	0.8333323268	-10.52346673	-0.2677655677	0.1728900877	-0.1633734147
1718178618	-1.614834075	1.354113493	-10.31156118	-0.2320968193	0.2018729037	-0.1388277414
1718178618	-1.664003179	2.057461668	-9.643900401	-0.1801376642	0.1617324747	-0.5976544279
1718178618	-1.656593195	1.925112761	-9.674481417	0.1436702671	0.0851547423	-0.3974219316
1718178618	-1.60614428	0.909850553	-9.923306541	-0.1244434757	0.2474556687	-0.1720032051
1718178618	-1.25700994	0.9450619324	-10.10725324	-0.2350660275	0.1409785768	0.04407152104
1718178618	-1.226017712	1.224195612	-10.2199666	-0.1479743348	0.2401457576	-0.0150259377
1718178618	-0.8304742339	1.730823238	-10.24076506	-0.05808107995	0.2563748782	-0.01661574916
1718178618	-0.3974275752	1.780003156	-9.782180745	0.005028582851	0.1311059557	-0.0949315562
1718178618	-0.0572654908	1.468590643	-9.547256721	-0.01076815273	-0.02148887831	-0.1832033621
1718178619	0.1320956635	1.316697662	-9.839211376	-0.04501714712	-0.1101538438	-0.2883243724
1718178619	-0.1965408823	1.542349269	-10.32673887	-0.02590042754	-0.02615432666	-0.3315751072
1718178619	-0.5657561797	1.751698998	-10.56441833	-0.021754564	-0.004192588497	-0.1910578231
1718178619	-0.8785958753	1.933617993	-10.4996159	0.02568454088	0.05421650864	0.01114634241
1718178619	-0.8929729218	1.885932112	-10.31915178	-0.02853718588	0.05943672881	-0.0001107796666
1718178619	-0.8476792704	2.073818198	-10.14813938	0.06744169587	0.01822302514	-0.05338112494
1718178619	-1.078683198	1.776738455	-9.860721782	0.08534162131	-0.01016755997	0.002696889349
1718178619	-1.473934489	1.505991277	-9.877904387	0.05404097303	0.1968431245	-0.04002032871
1718178619	-1.148231512	1.491390212	-9.770873169	0.1184752568	0.2117611209	-0.05254936979
1718178619	-0.5299566617	1.417783562	-9.858583601	0.07833742442	0.04570831649	-0.1519044782
1718178619	-0.3956126713	1.487268456	-9.876111074	0.06446910043	-0.01684557372	-0.3237354267
1718178619	-0.2105325462	1.506695918	-9.993198992	0.04454375359	-0.02444111097	-0.4625366197
1718178619	0.01712075917	1.618284361	-10.11896823	0.02508288702	-0.06241123424	-0.451448149
1718178619	0.1779629317	1.516110958	-10.07810313	-0.07405854014	-0.09477047657	-0.2665295281
1718178619	0.1586546211	1.525727512	-10.07238885	-0.09900857287	-0.2348253277	-0.172057983
1718178619	-0.1224376174	1.430594675	-10.18426166	-0.1003602686	-0.2627892515	-0.2927351664
1718178619	-0.7055988771	1.499643807	-10.09994204	-0.06480132977	-0.1792906958	-0.484356298
1718178619	-0.9474944934	1.124799783	-10.04576037	-0.1617316924	-0.1012112401	-0.4866091658
1718178619	-0.9072836251	1.137807368	-10.24215388	-0.206312776	-0.2245230887	-0.3914690342
1718178619	-1.331749539	1.244765521	-10.45778634	-0.2207106738	-0.2419677926	-0.299718807
1718178620	-1.688391332	1.439152221	-10.48211297	-0.08401738943	-0.2087785303	-0.3466440716
1718178620	-2.142818523	1.26506509	-10.21101991	-0.1766051641	-0.07261950105	-0.4956772626
1718178620	-2.310012534	1.442311854	-9.822255565	-0.01108394642	-0.008384512764	-0.6764483098
1718178620	-2.270587117	1.213327158	-9.915310281	-0.005797651759	0.05276074156	-0.7212414143
1718178620	-1.936665982	0.9825574042	-10.12647349	0.03635189089	0.008970250598	-0.7978990416
1718178620	-1.881689068	0.8638228152	-10.37065283	0.02203132261	0.02273608034	-0.6907264485
1718178620	-1.716854333	0.6877778276	-10.40660561	-0.03942039758	-0.05342234568	-0.6432563344
1718178620	-1.812353374	0.5870007009	-10.30132035	-0.02629211196	-0.1236347236	-0.6393440176
1718178620	-2.305150335	0.665276073	-10.16200541	-0.0189684897	0.05483879784	-0.5540241926
1718178620	-2.49541864	0.7161779927	-10.24691306	-0.09928827969	0.2230565192	-0.4260149606
1718178620	-2.254163806	0.9704073861	-10.18497361	-0.05154877024	0.08681335071	-0.3364858431
1718178620	-2.549026896	1.070862953	-10.11416229	-0.0710426184	0.3486886802	-0.3401238876
1718178620	-1.954664142	1.19144222	-10.11272086	-0.03519702772	0.2585322884	-0.477506115
1718178620	-1.565042016	1.340678257	-10.11900096	-0.05660274675	0.06607813659	-0.4581932037
1718178620	-1.745034426	1.345627258	-9.82611341	-0.05683080904	-0.0323928689	-0.3568415484
1718178620	-1.995298642	1.434158651	-9.932768781	-0.08129592175	0.0407600758	-0.2634677916
1718178620	-2.042991975	1.591593484	-10.09579427	-0.06605956104	0.05731887492	-0.2684334552
1718178620	-1.935471511	1.701836212	-10.27886419	0.01048033472	-0.004873984789	-0.3714646996
1718178620	-1.894623368	1.592686686	-10.17082584	0.008826629234	-0.008566366615	-0.3945178876
1718178620	-1.90821321	1.394549986	-10.0092827	-0.04780114498	-0.0412259459	-0.3066035445
1718178621	-1.906140934	1.357937581	-9.91058033	-0.08309555286	-0.02427585558	-0.2994474974
1718178621	-1.967555626	1.565140069	-9.743246911	-0.01372401499	-0.0125442055	-0.3074926075
1718178621	-1.853837184	1.484784822	-9.727354929	-0.04142363983	0.03833986574	-0.3209373765
1718178621	-1.865629621	1.56493271	-9.828928467	-0.03602606561	0.1521149178	-0.2788161383
1718178621	-1.473524885	1.413747	-10.12582818	0.001725247769	0.1197517182	-0.2777221949
1718178621	-1.356653971	1.109083378	-10.22370754	-0.0883748536	0.1302782036	-0.3263241525
1718178621	-1.428854115	1.083930962	-10.22910501	-0.1127935774	0.1315255035	-0.395283846
1718178621	-1.606591293	1.123831815	-10.23020391	-0.1657352225	0.2715475061	-0.3558242209
1718178621	-1.397817025	1.074362339	-10.34589249	-0.2218038182	0.1826339283	-0.2524386429
1718178621	-1.403139682	1.009505909	-10.43413542	-0.21532984	0.09100201208	-0.1822769316
1718178621	-1.848011839	1.061692023	-10.04992684	-0.1643583682	0.1055860065	-0.1655486015
1718178621	-1.819136019	1.076615744	-9.920426017	-0.09998377253	0.1593705671	-0.3667318629
1718178621	-1.289243546	1.032071523	-9.889421807	-0.07544952582	0.01360063053	-0.5150045217
1718178621	-1.324791098	1.040430843	-9.782382405	-0.08533081054	0.01784509761	-0.4880335242
1718178621	-1.381758748	0.997938294	-9.800077051	-0.05657122574	0.0660966081	-0.4254016013
1718178621	-1.11134745	0.9532571485	-9.859559752	0.01609823767	-0.0409114557	-0.3421071769
1718178621	-1.218055063	0.6426075834	-10.10411553	-0.0317513987	-0.08416426276	-0.356305787
1718178621	-1.29224302	0.5390242767	-10.1727384	-0.08494139813	-0.09159247651	-0.3959938447
1718178621	-1.525638372	0.7828005556	-10.12458432	-0.06583677513	0.006944410485	-0.3799718681
1718178622	-1.477571384	1.022535852	-10.14873676	-0.08660936089	0.008690413745	-0.3864985103
1718178622	-1.324224696	1.201101955	-10.39100355	-0.07025838404	0.05876806732	-0.2635563917
1718178622	-1.186829392	1.260685121	-10.34099653	-0.05578388713	0.07653565446	-0.2380095862
1718178622	-1.07447939	1.254448857	-10.39081299	-0.05626682643	0.08741780505	-0.2876335817
1718178622	-1.089379072	1.414277162	-10.30385484	-0.02506848514	0.0861999831	-0.2733217706
1718178622	-1.339910634	1.287081838	-10.18891796	-0.008113950681	0.2014955004	-0.2865608937
1718178622	-1.131645192	1.437396025	-10.13363622	0.1257493318	0.1437340498	-0.2284019163
1718178622	-1.229991146	1.192321341	-10.04418567	0.0571340349	0.1004713724	-0.3025438883
1718178622	-1.51370112	1.172998581	-10.05423594	0.05965460452	0.1316360579	-0.3169702985
1718178622	-1.495160963	1.246133741	-10.10367947	0.01220615881	0.1454019043	-0.1822617183
1718178622	-1.273430183	1.290972561	-10.13883496	0.016996576	0.04664081402	-0.1172978733
1718178622	-1.106535008	1.330378835	-10.14876832	-0.05645864893	0.02608082133	-0.1595504636
1718178622	-0.8563531369	1.450622587	-10.04711178	-0.009742282273	0.02979630556	-0.1860924758
1718178622	-0.4526392114	1.419337368	-10.15724857	-0.03881907245	-0.18565119	-0.180187998
1718178622	-0.5820411423	1.342544928	-10.30296871	-0.03935190024	-0.2288705328	-0.140873099
1718178622	-0.9824814164	1.36413965	-10.16738652	-0.02262285022	-0.137147811	-0.1874039661
1718178622	-1.206394144	1.342305274	-10.03437154	-0.005684434643	-0.09785495807	-0.2841202064
1718178622	-1.275393446	1.335304893	-10.09731403	-0.04534119141	-0.03376364577	-0.2717390041
1718178622	-1.291373689	1.241631023	-10.09504141	-0.09845221355	0.03204476045	-0.2154515631
1718178623	-1.159455136	1.382138687	-10.12187915	-0.09533107198	0.02798794636	-0.1955216473
1718178623	-1.255451458	1.32515204	-9.990998852	-0.1399766124	0.06363212299	-0.2419750497
1718178623	-1.362402598	1.330950498	-10.11802832	-0.1873909998	0.1206943191	-0.2040722752
1718178623	-1.208745091	1.327899586	-10.13035238	-0.2865543689	0.06104367189	-0.1808720143
1718178623	-1.162830312	1.630247332	-10.33873209	-0.1679868253	-0.03845700321	-0.09706534745
1718178623	-1.239804392	1.471560453	-10.2805254	-0.1249096953	-0.1384054306	-0.1885979444
1718178623	-1.629328026	1.275539576	-10.19824927	-0.09767145795	-0.1654338192	-0.3039890859
1718178623	-2.106485665	1.280609573	-10.01467199	-0.09905208227	-0.04754503627	-0.2618685468
1718178623	-2.086422682	1.39068995	-10.07011623	-0.02942210854	-0.04151088333	-0.1468676416
1718178623	-2.006167534	1.230248628	-9.978248091	-0.07359130517	-0.006987346155	-0.2087053932
1718178623	-2.006643627	1.336976334	-9.793749602	-0.05097817965	0.05559081627	-0.2979859879
1718178623	-1.709705485	1.448048937	-9.74848598	0.06568105927	-0.01131591607	-0.2884571975
1718178623	-1.412186619	1.24805901	-9.76419033	0.01439117325	-0.05232340058	-0.2376022057
1718178623	-1.2549042	1.33619059	-9.939723422	-0.02314528544	-0.1605069213	-0.1252684315
1718178623	-1.449160697	1.093624235	-10.32021795	-0.1047561156	-0.06036484462	-0.03525888796
1718178623	-1.621046666	1.315370797	-10.32087378	-0.07902697508	0.08121942245	0.1139045317
1718178623	-1.776285889	1.370114049	-10.1283802	-0.1120889798	0.07914358825	-0.04389319743
1718178623	-2.284602345	1.716861494	-10.08119759	0.02594412835	0.2152196351	-0.2308905737
1718178623	-2.377033668	1.798788812	-10.17077324	0.1116764146	0.2918218353	-0.2067664622
1718178624	-2.060826322	1.552014046	-10.26894602	0.01305100193	0.1347169691	-0.1072333464
1718178624	-1.842434331	1.515511092	-10.29636361	-0.01981410368	0.1892509848	0.02977710375
1718178624	-1.472814252	1.496158888	-10.28565166	0.05444146669	-0.03559518695	-0.007687399659
1718178624	-1.361861476	1.387653651	-10.21427569	0.00516249096	-0.09994701258	-0.1493202798
